#time,accel_x,accel_y,accel_z
218.536084,-3849.070898,-77869.665098,612.876398
218.538643,2220.617826,-74760.800142,-1991.848295
218.541201,-740.205942,-76389.253214,459.657299
218.543760,5033.400406,-78165.747475,1378.971896
218.546319,8290.306550,-75056.882519,-766.095498
218.548877,10955.047942,-75797.088461,-919.314598
218.551436,-1036.288319,-78165.747475,-1838.629195
218.553995,0.000000,-75945.129649,-5362.668486
218.556554,5477.523971,-76685.335591,-4749.792088
218.559112,296.082377,-78609.871040,-3524.039291
218.561671,5625.565159,-75501.006084,-4596.572988
218.564230,5033.400406,-76537.294403,-2451.505594
218.566788,-2812.782580,-78461.829852,3524.039291
218.569347,7254.018232,-74020.594200,-3370.820191
218.571906,-592.164754,-77277.500345,612.876398
218.574464,-3108.864956,-75945.129649,-3064.381992
218.577023,1036.288319,-74316.676577,-8886.707777
218.579582,-7994.224174,-76537.294403,1991.848295
218.582140,-3256.906145,-75797.088461,5362.668486
218.584699,3701.029710,-75945.129649,9346.365076
218.587258,1184.329507,-75945.129649,3370.820191
218.589817,-8734.430116,-78165.747475,4136.915689
218.592375,-1628.453072,-76093.170838,-5056.230287
218.594934,-1332.370696,-78313.788664,306.438199
218.597493,296.082377,-77129.459156,-306.438199
218.600051,-1036.288319,-75204.923707,1378.971896
218.602614,-9770.718434,-77129.459156,4136.915689
218.605177,4441.235652,-77277.500345,7814.174080
218.607740,8438.347739,-76093.170838,2451.505594
218.610303,1776.494261,-74020.594200,-3983.696590
218.612866,-1628.453072,-79646.159359,-1072.533697
218.615429,6365.771101,-74464.717765,1685.410096
218.617992,1184.329507,-77869.665098,5975.544884
218.620555,-4441.235652,-84383.477388,7354.516781
218.623118,-2812.782580,-75056.882519,3064.381992
218.625681,-3404.947333,-76241.212026,5975.544884
218.628244,-2368.659014,-78757.912229,4136.915689
218.630807,3108.864956,-74612.758954,153.219100
218.633370,148.041188,-75649.047272,612.876398
218.635933,-3849.070898,-77573.582722,459.657299
218.638496,3701.029710,-74612.758954,-2451.505594
218.641059,-2368.659014,-74168.635388,2451.505594
218.643622,-6069.688724,-76537.294403,3524.039291
218.646185,-592.164754,-74464.717765,1532.190996
218.648748,-5329.482782,-79053.994606,6128.763984
218.651311,-2960.823768,-75945.129649,2604.724693
218.653874,3108.864956,-75204.923707,306.438199
218.656437,-5329.482782,-77573.582722,-1532.190996
218.659000,-6365.771101,-77573.582722,5822.325785
218.661563,11399.171507,-73872.553012,-7507.735880
218.664126,1480.411884,-81422.653620,4290.134789
218.666689,-3849.070898,-73724.511823,-6741.640382
218.669252,1184.329507,-75056.882519,-2451.505594
218.671815,6809.894666,-76685.335591,-4136.915689
218.674378,1776.494261,-76685.335591,2298.286494
218.676941,5625.565159,-74020.594200,-6894.859482
218.679504,0.000000,-78461.829852,-3524.039291
218.682067,-296.082377,-75649.047272,-3217.601092
218.684630,3256.906145,-73724.511823,-7354.516781
218.687193,-3997.112087,-80534.406490,5056.230287
218.689756,1924.535449,-74020.594200,-3524.039291
218.692319,6809.894666,-77573.582722,1991.848295
218.694883,1628.453072,-79053.994606,-2911.162892
218.697446,148.041188,-75501.006084,-2451.505594
218.700009,6661.853478,-75501.006084,-6435.202183
218.702572,1184.329507,-78609.871040,-1991.848295
218.705137,10658.965565,-75945.129649,153.219100
218.707703,15248.242405,-75056.882519,-612.876398
218.710269,592.164754,-77573.582722,-153.219100
218.712835,-740.205942,-74760.800142,-919.314598
218.715400,6365.771101,-75204.923707,-5515.887586
218.717966,11695.253884,-75945.129649,-1532.190996
218.720532,2368.659014,-74464.717765,-2911.162892
218.723098,2960.823768,-74168.635388,-6894.859482
218.725663,-296.082377,-77869.665098,-3217.601092
218.728229,148.041188,-74612.758954,-5515.887586
218.730795,6069.688724,-74316.676577,-4443.353888
218.733361,-740.205942,-77277.500345,-919.314598
218.735926,-2664.741391,-76093.170838,0.000000
218.738492,5773.606348,-74908.841330,-3370.820191
218.741058,-2072.576638,-78609.871040,1378.971896
218.743624,2664.741391,-76981.417968,-2145.067394
218.746189,9030.512492,-76241.212026,-4136.915689
218.748755,1184.329507,-78313.788664,-4136.915689
218.751321,296.082377,-76981.417968,-3524.039291
218.753887,148.041188,-75797.088461,-3524.039291
218.756453,2516.700203,-77721.623910,2604.724693
218.759018,4441.235652,-74020.594200,-1838.629195
218.761584,-1924.535449,-74760.800142,919.314598
218.764150,-5329.482782,-77277.500345,1532.190996
218.766716,-4737.318029,-76685.335591,2298.286494
218.769281,2368.659014,-73576.470635,-1991.848295
218.771847,-1480.411884,-77721.623910,3524.039291
218.774413,-4737.318029,-76241.212026,459.657299
218.776979,-3997.112087,-75649.047272,2451.505594
218.779544,-7105.977043,-77129.459156,5209.449386
218.782110,-4145.153275,-76389.253214,1838.629195
218.784676,1776.494261,-76389.253214,2298.286494
218.787242,-4145.153275,-78905.953417,1991.848295
218.789807,-5625.565159,-76685.335591,459.657299
218.792373,444.123565,-75797.088461,-2451.505594
218.794939,-3256.906145,-79498.118171,6128.763984
218.797505,296.082377,-76981.417968,1991.848295
218.800070,3404.947333,-77277.500345,6128.763984
218.802636,-18357.107362,-76685.335591,1378.971896
218.805202,-11103.089130,-76389.253214,0.000000
218.807778,1036.288319,-75204.923707,-612.876398
218.810346,-5033.400406,-79053.994606,612.876398
218.812914,-1332.370696,-76241.212026,1838.629195
218.815482,-2072.576638,-76093.170838,612.876398
218.818050,-7254.018232,-78461.829852,6588.421283
218.820618,-4145.153275,-79202.035794,8427.050478
218.823186,-148.041188,-76537.294403,4136.915689
218.825755,-5033.400406,-79942.241736,7354.516781
218.828323,-4441.235652,-79942.241736,2604.724693
218.830891,0.000000,-76093.170838,612.876398
218.833459,-148.041188,-78609.871040,-766.095498
218.836027,-3701.029710,-79053.994606,2911.162892
218.838595,-3849.070898,-73576.470635,-1072.533697
218.841163,-6957.935855,-77573.582722,6435.202183
218.843732,-2516.700203,-76093.170838,4903.011187
218.846300,1924.535449,-73872.553012,2757.943793
218.848868,-1332.370696,-76833.376780,1378.971896
218.851436,-8438.347739,-76833.376780,-2451.505594
218.854004,-3256.906145,-75204.923707,1225.752797
218.856572,4589.276840,-76537.294403,-4596.572988
218.859140,-1184.329507,-78313.788664,1225.752797
218.861709,1924.535449,-70911.729244,-8580.269578
218.864277,-740.205942,-79646.159359,3064.381992
218.866845,6513.812290,-77129.459156,-4443.353888
218.869413,6661.853478,-74020.594200,766.095498
218.871981,1776.494261,-77869.665098,-5209.449386
218.874549,-888.247130,-78017.706287,-2145.067394
218.877117,3256.906145,-73428.429446,-7660.954980
218.879685,-2960.823768,-78461.829852,-1532.190996
218.882254,740.205942,-75945.129649,459.657299
218.884822,5477.523971,-74316.676577,-2604.724693
218.887390,-3256.906145,-79053.994606,3064.381992
218.889958,-1776.494261,-75501.006084,-3677.258390
218.892526,2516.700203,-74760.800142,-3983.696590
218.895094,-444.123565,-78609.871040,-4903.011187
218.897662,9474.636058,-78905.953417,-766.095498
218.900231,11103.089130,-74760.800142,-1991.848295
218.902799,1776.494261,-80090.282924,1072.533697
218.905367,-1332.370696,-75797.088461,306.438199
218.907935,-3256.906145,-72836.264693,-6128.763984
218.910505,-6217.729913,-76685.335591,-2145.067394
218.913076,2220.617826,-72096.058751,-6894.859482
218.915646,8290.306550,-76981.417968,-5209.449386
218.918216,-5033.400406,-79202.035794,-7048.078582
218.920786,1924.535449,-76981.417968,-3064.381992
218.923357,7254.018232,-74908.841330,-2911.162892
218.925927,-888.247130,-79498.118171,3830.477490
218.928497,-592.164754,-76241.212026,0.000000
218.931068,2664.741391,-76537.294403,766.095498
218.933638,740.205942,-78461.829852,-1991.848295
218.936208,4441.235652,-76981.417968,-1991.848295
218.938779,7254.018232,-74316.676577,-10112.460574
218.941349,-740.205942,-77425.541533,-2757.943793
218.943919,-1480.411884,-74464.717765,-7201.297681
218.946489,1628.453072,-76537.294403,766.095498
218.949060,-740.205942,-77277.500345,2604.724693
218.951630,-5477.523971,-76537.294403,4749.792088
218.954200,1480.411884,-74168.635388,-1225.752797
218.956771,-6069.688724,-78461.829852,2451.505594
218.959341,-296.082377,-77277.500345,2757.943793
218.961911,1776.494261,-74316.676577,-2757.943793
218.964482,-11251.130318,-79646.159359,6281.983084
218.967052,-2812.782580,-75056.882519,-1072.533697
218.969622,-1036.288319,-76241.212026,6435.202183
218.972192,-7254.018232,-77277.500345,2145.067394
218.974763,-2664.741391,-76241.212026,5515.887586
218.977333,2664.741391,-74612.758954,-3064.381992
218.979903,-6661.853478,-79646.159359,4290.134789
218.982474,-2960.823768,-75204.923707,-4596.572988
218.985044,2220.617826,-75501.006084,1378.971896
218.987614,-6513.812290,-78313.788664,1685.410096
218.990185,-9178.553681,-74760.800142,4136.915689
218.992755,13027.624579,-76389.253214,4903.011187
218.995325,-2516.700203,-78313.788664,5822.325785
218.997895,740.205942,-75945.129649,-2298.286494
219.000466,5181.441594,-76093.170838,-3370.820191
219.003036,2072.576638,-77425.541533,2451.505594
219.005606,-5181.441594,-72984.305881,459.657299
219.008177,-296.082377,-77129.459156,3064.381992
219.010747,-2664.741391,-77869.665098,8886.707777
219.013318,296.082377,-75352.964896,5056.230287
219.015890,-444.123565,-76833.376780,612.876398
219.018461,-4737.318029,-77573.582722,2145.067394
219.021033,1924.535449,-75204.923707,-3370.820191
219.023604,0.000000,-76093.170838,-1072.533697
219.026176,-5181.441594,-77869.665098,2604.724693
219.028747,-1480.411884,-74908.841330,3677.258390
219.031319,-4441.235652,-76981.417968,6435.202183
219.033890,-5033.400406,-77425.541533,7814.174080
219.036462,2812.782580,-74464.717765,2298.286494
219.039033,-1480.411884,-77425.541533,-153.219100
219.041605,-6513.812290,-78313.788664,612.876398
219.044176,4293.194464,-76093.170838,-4596.572988
219.046748,3108.864956,-76981.417968,-1225.752797
219.049319,-3108.864956,-77425.541533,-919.314598
219.051891,-1332.370696,-75501.006084,-919.314598
219.054462,1480.411884,-77129.459156,-1225.752797
219.057033,296.082377,-77425.541533,-2145.067394
219.059605,3404.947333,-74316.676577,-2757.943793
219.062176,4589.276840,-75352.964896,-11184.994271
219.064748,-2516.700203,-78017.706287,612.876398
219.067319,6069.688724,-73132.347070,-10112.460574
219.069891,-1332.370696,-78905.953417,3524.039291
219.072462,-444.123565,-76981.417968,-153.219100
219.075034,2220.617826,-77425.541533,2604.724693
219.077605,4441.235652,-74760.800142,-5209.449386
219.080177,-3256.906145,-78017.706287,-306.438199
219.082748,3108.864956,-75501.006084,-8427.050478
219.085320,7698.141797,-78461.829852,-3524.039291
219.087891,-15396.283594,-75056.882519,-4903.011187
219.090463,4885.359217,-73576.470635,-919.314598
219.093034,2960.823768,-73428.429446,-3677.258390
219.095606,2960.823768,-78017.706287,1991.848295
219.098177,-4293.194464,-75204.923707,-6741.640382
219.100749,1036.288319,-80682.447678,1378.971896
219.103320,8142.265362,-79942.241736,-459.657299
219.105891,296.082377,-76981.417968,-4443.353888
219.108463,2368.659014,-79350.076982,-919.314598
219.111034,-2072.576638,-79202.035794,2757.943793
219.113606,3256.906145,-76537.294403,153.219100
219.116178,1480.411884,-76981.417968,1072.533697
219.118751,-740.205942,-77277.500345,-1072.533697
219.121323,5921.647536,-74316.676577,-6128.763984
219.123896,4589.276840,-74760.800142,-8120.612279
219.126468,592.164754,-76389.253214,-5669.106685
219.129041,444.123565,-73280.388258,-9039.926876
219.131614,2072.576638,-77573.582722,1685.410096
219.134186,2368.659014,-76833.376780,306.438199
219.136759,-2664.741391,-74760.800142,2145.067394
219.139331,-3404.947333,-75352.964896,2298.286494
219.141904,-6809.894666,-77721.623910,3830.477490
219.144476,2516.700203,-75649.047272,-1225.752797
219.147049,-740.205942,-76241.212026,0.000000
219.149621,-1924.535449,-78757.912229,3524.039291
219.152194,444.123565,-74464.717765,-919.314598
219.154766,-4293.194464,-79053.994606,6281.983084
219.157339,-3701.029710,-75649.047272,5209.449386
219.159911,-888.247130,-74464.717765,2757.943793
219.162484,-5033.400406,-77277.500345,1225.752797
219.165056,444.123565,-77573.582722,-919.314598
219.167629,1776.494261,-74760.800142,-2451.505594
219.170201,-444.123565,-76833.376780,-306.438199
219.172774,-8438.347739,-77129.459156,2604.724693
219.175346,8290.306550,-76389.253214,3677.258390
219.177919,-4589.276840,-77277.500345,5515.887586
219.180491,-5921.647536,-78757.912229,4290.134789
219.183064,3108.864956,-76093.170838,-2145.067394
219.185636,-1924.535449,-80534.406490,1991.848295
219.188209,1036.288319,-76241.212026,919.314598
219.190781,888.247130,-75352.964896,612.876398
219.193354,-3256.906145,-76093.170838,5515.887586
219.195926,1036.288319,-73280.388258,3064.381992
219.198499,-2220.617826,-73872.553012,766.095498
219.201071,-3849.070898,-75352.964896,1072.533697
219.203644,-2368.659014,-75501.006084,-2604.724693
219.206216,1332.370696,-75204.923707,-2604.724693
219.208789,-6217.729913,-75797.088461,-1072.533697
219.211362,-5625.565159,-77869.665098,5209.449386
219.213934,-1332.370696,-76093.170838,5056.230287
219.216507,-2812.782580,-78165.747475,9499.584175
219.219080,1036.288319,-77425.541533,5515.887586
219.221653,-6217.729913,-75945.129649,-2604.724693
219.224227,-9326.594869,-78461.829852,3064.381992
219.226800,5477.523971,-76241.212026,-6128.763984
219.229374,4293.194464,-76685.335591,-2604.724693
219.231947,-1480.411884,-76389.253214,-4443.353888
219.234521,-4145.153275,-80830.488866,4596.572988
219.237094,5477.523971,-73724.511823,-2604.724693
219.239667,7105.977043,-76685.335591,919.314598
219.242241,444.123565,-77721.623910,-4443.353888
219.244814,1628.453072,-77129.459156,-6281.983084
219.247388,1776.494261,-75056.882519,-6894.859482
219.249961,-2516.700203,-78609.871040,-2451.505594
219.252535,4293.194464,-74908.841330,-2757.943793
219.255108,2664.741391,-77129.459156,1225.752797
219.257681,-4145.153275,-78165.747475,3830.477490
219.260255,2516.700203,-75797.088461,-1532.190996
219.262828,9178.553681,-76685.335591,-3830.477490
219.265402,-11991.336260,-78905.953417,-6588.421283
219.267975,-5033.400406,-73724.511823,-7354.516781
219.270549,888.247130,-76389.253214,306.438199
219.273122,-10510.924376,-75945.129649,-3524.039291
219.275695,2368.659014,-75501.006084,2145.067394
219.278269,-444.123565,-78905.953417,-2604.724693
219.280842,-6365.771101,-79053.994606,1225.752797
219.283416,6217.729913,-77277.500345,-7201.297681
219.285989,148.041188,-79498.118171,153.219100
219.288563,5921.647536,-76833.376780,-3370.820191
219.291136,3997.112087,-76685.335591,-306.438199
219.293709,-1776.494261,-77129.459156,459.657299
219.296283,-3404.947333,-78757.912229,3217.601092
219.298856,4737.318029,-75352.964896,-2451.505594
219.301430,8734.430116,-75649.047272,-4749.792088
219.304003,1924.535449,-76685.335591,-7354.516781
219.306576,2516.700203,-75501.006084,-9652.803275
219.309150,1184.329507,-75352.964896,-5209.449386
219.311723,3701.029710,-76241.212026,612.876398
219.314297,5625.565159,-74464.717765,306.438199
219.316870,-4589.276840,-78461.829852,6435.202183
219.319444,-6365.771101,-76981.417968,4290.134789
219.322017,-3256.906145,-74908.841330,0.000000
219.324591,2368.659014,-74908.841330,-1225.752797
219.327164,-8290.306550,-77573.582722,459.657299
219.329738,-4145.153275,-75945.129649,612.876398
219.332311,-2812.782580,-75945.129649,1378.971896
219.334885,-4885.359217,-80238.324113,11338.213370
219.337458,740.205942,-74464.717765,2451.505594
219.340032,-4441.235652,-78609.871040,8733.488677
219.342605,-2220.617826,-77721.623910,153.219100
219.345179,-1036.288319,-75204.923707,-2298.286494
219.347752,-3849.070898,-77721.623910,-2298.286494
219.350326,-2664.741391,-76093.170838,1532.190996
219.352899,7994.224174,-76389.253214,1072.533697
219.355473,-9030.512492,-77425.541533,3677.258390
219.358046,-11991.336260,-76685.335591,5669.106685
219.360620,3552.988522,-75352.964896,-1991.848295
219.363193,5625.565159,-80386.365301,3217.601092
219.365767,-1776.494261,-75352.964896,1378.971896
219.368340,1924.535449,-78165.747475,1991.848295
219.370914,-7994.224174,-76093.170838,2757.943793
219.373487,-5921.647536,-76685.335591,5975.544884
219.376061,-444.123565,-73132.347070,3064.381992
219.378634,-3849.070898,-78165.747475,3064.381992
219.381208,-3404.947333,-75797.088461,-1072.533697
219.383781,-1628.453072,-74020.594200,-4596.572988
219.386355,296.082377,-76685.335591,-153.219100
219.388928,-7846.182985,-78905.953417,6741.640382
219.391502,-1036.288319,-74612.758954,3983.696590
219.394075,-3552.988522,-78313.788664,8580.269578
219.396649,-5329.482782,-76685.335591,2911.162892
219.399222,-3701.029710,-76685.335591,1991.848295
219.401796,-444.123565,-78017.706287,-1532.190996
219.404369,4441.235652,-77869.665098,-2911.162892
219.406943,5181.441594,-73724.511823,-7507.735880
219.409516,-3108.864956,-77425.541533,-4903.011187
219.412090,-444.123565,-77277.500345,919.314598
219.414663,2664.741391,-73872.553012,-3370.820191
219.417237,1332.370696,-78017.706287,1838.629195
219.419810,3701.029710,-75501.006084,-7967.393179
219.422384,2664.741391,-76093.170838,-4596.572988
219.424957,-444.123565,-76241.212026,-9039.926876
219.427531,888.247130,-79053.994606,1225.752797
219.430104,5773.606348,-74168.635388,-5975.544884
219.432678,-1332.370696,-79202.035794,5822.325785
219.435251,1036.288319,-75797.088461,-1991.848295
219.437825,1776.494261,-75352.964896,-1532.190996
219.440398,-6661.853478,-76093.170838,-4290.134789
219.442972,-3256.906145,-77721.623910,-6894.859482
219.445545,6069.688724,-74612.758954,-5209.449386
219.448119,9622.677246,-76093.170838,1225.752797
219.450692,8438.347739,-76241.212026,1378.971896
219.453266,-2368.659014,-75649.047272,-3677.258390
219.455839,-740.205942,-78609.871040,919.314598
219.458413,3256.906145,-76833.376780,-4749.792088
219.460986,5773.606348,-77277.500345,-6588.421283
219.463560,-592.164754,-76389.253214,-3217.601092
219.466133,1184.329507,-76093.170838,-3677.258390
219.468707,2516.700203,-75352.964896,459.657299
219.471280,-2072.576638,-76685.335591,1225.752797
219.473854,3701.029710,-74168.635388,-2298.286494
219.476427,5921.647536,-74908.841330,-6588.421283
219.479001,0.000000,-77425.541533,-6435.202183
219.481575,-3404.947333,-74760.800142,-10418.898773
219.484148,-1924.535449,-75797.088461,-3370.820191
219.486722,-2220.617826,-77573.582722,612.876398
219.489295,0.000000,-77129.459156,4903.011187
219.491869,-2664.741391,-76537.294403,4290.134789
219.494442,-8438.347739,-78461.829852,7967.393179
219.497016,-1924.535449,-77277.500345,3064.381992
219.499589,1628.453072,-75352.964896,-1991.848295
219.502163,-3552.988522,-79202.035794,3064.381992
219.504736,592.164754,-74316.676577,-2604.724693
219.507310,-4293.194464,-76537.294403,6281.983084
219.509883,-6365.771101,-76537.294403,5669.106685
219.512457,-2812.782580,-77129.459156,7048.078582
219.515030,2072.576638,-75204.923707,612.876398
219.517604,-8290.306550,-76537.294403,153.219100
219.520177,-2516.700203,-76981.417968,-919.314598
219.522751,-1332.370696,-74316.676577,-4443.353888
219.525324,-444.123565,-79498.118171,4903.011187
219.527869,-8290.306550,-73576.470635,-1225.752797
219.530413,3256.906145,-77425.541533,9499.584175
219.532957,2220.617826,-78165.747475,4136.915689
219.535502,-1776.494261,-76241.212026,-2298.286494
219.538046,-10658.965565,-77277.500345,-1225.752797
219.540590,-3256.906145,-76685.335591,0.000000
219.543135,-5329.482782,-77129.459156,3524.039291
219.545679,592.164754,-73428.429446,5209.449386
219.548223,-1332.370696,-76241.212026,4903.011187
219.550767,592.164754,-76093.170838,2298.286494
219.553312,-444.123565,-75352.964896,-2604.724693
219.555856,-6809.894666,-77277.500345,1838.629195
219.558400,296.082377,-76389.253214,-2298.286494
219.560945,0.000000,-77573.582722,5822.325785
219.563489,-5329.482782,-77869.665098,7201.297681
219.566033,444.123565,-76685.335591,6435.202183
219.568578,-1480.411884,-76537.294403,1225.752797
219.571122,-5477.523971,-78461.829852,6435.202183
219.573666,5625.565159,-75352.964896,-7507.735880
219.576210,2960.823768,-77869.665098,-2911.162892
219.578755,-3849.070898,-76389.253214,-8886.707777
219.581299,-1776.494261,-76981.417968,-1991.848295
219.583843,5921.647536,-76093.170838,-1685.410096
219.586388,1332.370696,-76833.376780,2757.943793
219.588932,7402.059420,-74760.800142,-766.095498
219.591476,3701.029710,-76685.335591,-5515.887586
219.594021,444.123565,-78461.829852,-2911.162892
219.596565,2960.823768,-73132.347070,-11184.994271
219.599109,-1332.370696,-78313.788664,-459.657299
219.601653,-1480.411884,-76981.417968,-612.876398
219.604198,1776.494261,-75501.006084,2298.286494
219.606742,7698.141797,-76093.170838,-919.314598
219.609286,-4885.359217,-78905.953417,1378.971896
219.611831,11695.253884,-73428.429446,-6128.763984
219.614375,6957.935855,-77129.459156,-5362.668486
219.616919,-3997.112087,-77425.541533,-1378.971896
219.619463,444.123565,-71503.893997,-3524.039291
219.622008,-888.247130,-78609.871040,306.438199
219.624552,-148.041188,-75056.882519,-1685.410096
219.627096,7994.224174,-76389.253214,-2911.162892
219.629646,1776.494261,-76537.294403,-7967.393179
219.632196,-1628.453072,-79350.076982,-3370.820191
219.634745,1628.453072,-75945.129649,-2911.162892
219.637295,3256.906145,-78165.747475,919.314598
219.639845,592.164754,-78017.706287,3370.820191
219.642394,5329.482782,-76093.170838,-612.876398
219.644944,3849.070898,-76981.417968,-4443.353888
219.647494,-3108.864956,-78165.747475,-6435.202183
219.650043,3256.906145,-73872.553012,-9959.241474
219.652593,7105.977043,-76685.335591,-4443.353888
219.655143,-2072.576638,-77721.623910,2757.943793
219.657692,-2812.782580,-75204.923707,2911.162892
219.660242,-5181.441594,-75352.964896,5822.325785
219.662791,-5181.441594,-77425.541533,5362.668486
219.665341,-592.164754,-75352.964896,612.876398
219.667891,-1924.535449,-74612.758954,-3370.820191
219.670440,-9622.677246,-76833.376780,306.438199
219.672990,-2664.741391,-75649.047272,153.219100
219.675540,888.247130,-76389.253214,6435.202183
219.678089,-4293.194464,-77869.665098,7201.297681
219.680639,-2516.700203,-77129.459156,6741.640382
219.683189,1184.329507,-75649.047272,1838.629195
219.685738,-4293.194464,-79053.994606,2757.943793
219.688288,-3997.112087,-75204.923707,-4136.915689
219.690838,-7550.100608,-75501.006084,-3524.039291
219.693387,296.082377,-79053.994606,5056.230287
219.695937,-888.247130,-77277.500345,3370.820191
219.698487,-148.041188,-76241.212026,4903.011187
219.701036,2516.700203,-78017.706287,2757.943793
219.703586,-444.123565,-76093.170838,-2298.286494
219.706135,-5773.606348,-74760.800142,-766.095498
219.708685,-6365.771101,-75945.129649,3983.696590
219.711235,-148.041188,-74168.635388,2604.724693
219.713784,-592.164754,-75797.088461,3677.258390
219.716334,-8142.265362,-75649.047272,5056.230287
219.718884,148.041188,-76093.170838,-1532.190996
219.721433,-1628.453072,-78609.871040,1532.190996
219.723983,-1924.535449,-77129.459156,2604.724693
219.726533,-3849.070898,-75352.964896,2298.286494
219.729082,-2072.576638,-77277.500345,4749.792088
219.731637,-5921.647536,-78757.912229,6588.421283
219.734191,-5921.647536,-76389.253214,4443.353888
219.736745,2220.617826,-76389.253214,1685.410096
219.739299,592.164754,-77721.623910,-2757.943793
219.741854,6217.729913,-75501.006084,-6741.640382
219.744408,444.123565,-75501.006084,-8120.612279
219.746962,-2072.576638,-79350.076982,-306.438199
219.749516,8290.306550,-72836.264693,-5975.544884
219.752071,2664.741391,-78017.706287,2911.162892
219.754625,0.000000,-76537.294403,-1685.410096
219.757179,296.082377,-76093.170838,-3370.820191
219.759734,4293.194464,-75945.129649,-6281.983084
219.762288,0.000000,-78313.788664,-1991.848295
219.764842,7698.141797,-74908.841330,-5515.887586
219.767396,2220.617826,-77129.459156,1072.533697
219.769951,148.041188,-78313.788664,1685.410096
219.772505,12879.583391,-76389.253214,766.095498
219.775059,-1628.453072,-76093.170838,-3370.820191
219.777613,-6513.812290,-77277.500345,-1685.410096
219.780168,3997.112087,-74908.841330,-6128.763984
219.782722,-5329.482782,-79646.159359,-1072.533697
219.785276,1036.288319,-76093.170838,2145.067394
219.787830,3701.029710,-75352.964896,-4749.792088
219.790385,9474.636058,-76981.417968,-1838.629195
219.792939,3404.947333,-77129.459156,-6588.421283
219.795493,1036.288319,-75352.964896,-4596.572988
219.798048,1036.288319,-77869.665098,-3064.381992
219.800602,1332.370696,-77129.459156,306.438199
219.803156,4589.276840,-73576.470635,-3370.820191
219.805710,740.205942,-76685.335591,-153.219100
219.808265,-740.205942,-76981.417968,-4903.011187
219.810819,4441.235652,-75797.088461,-6894.859482
219.813381,2368.659014,-78313.788664,-4596.572988
219.815939,444.123565,-75945.129649,-1991.848295
219.818496,1184.329507,-75204.923707,-612.876398
219.821053,-1184.329507,-78165.747475,6281.983084
219.823611,-7254.018232,-77573.582722,8580.269578
219.826168,-888.247130,-75797.088461,3830.477490
219.828726,-3552.988522,-78461.829852,4290.134789
219.831283,-5773.606348,-76537.294403,766.095498
219.833840,-1924.535449,-74908.841330,-3217.601092
219.836398,-5773.606348,-77129.459156,153.219100
219.838955,-3849.070898,-77869.665098,5669.106685
219.841513,2368.659014,-73724.511823,766.095498
219.844070,-8438.347739,-79498.118171,9652.803275
219.846627,-148.041188,-74464.717765,1378.971896
219.849185,1924.535449,-75352.964896,-1532.190996
219.851742,-2072.576638,-77277.500345,-1378.971896
219.854300,-4885.359217,-76093.170838,1225.752797
219.856857,7698.141797,-76685.335591,2451.505594
219.859414,-3997.112087,-79646.159359,4290.134789
219.861972,-4441.235652,-78905.953417,8427.050478
219.864529,7698.141797,-75204.923707,-1072.533697
219.867087,-9178.553681,-80386.365301,4443.353888
219.869644,-2072.576638,-72836.264693,-1072.533697
219.872201,444.123565,-73724.511823,3983.696590
219.874759,-3997.112087,-76833.376780,2757.943793
219.877316,-4589.276840,-73428.429446,1532.190996
219.879874,-1036.288319,-73132.347070,-1072.533697
219.882431,-2664.741391,-78461.829852,2604.724693
219.884988,-5033.400406,-74464.717765,-306.438199
219.887546,-1184.329507,-74464.717765,612.876398
219.890103,-4293.194464,-78609.871040,5362.668486
219.892661,-2220.617826,-75352.964896,3217.601092
219.895218,-3256.906145,-76685.335591,3830.477490
219.897775,-3108.864956,-78905.953417,4749.792088
219.900333,6069.688724,-76537.294403,-2298.286494
219.902890,5921.647536,-76537.294403,-5822.325785
219.905447,-2960.823768,-77573.582722,-5515.887586
219.908005,1332.370696,-75501.006084,-4749.792088
219.910562,9770.718434,-74316.676577,-5209.449386
219.913120,1036.288319,-78461.829852,1838.629195
219.915680,1776.494261,-75649.047272,-2451.505594
219.918241,2516.700203,-76685.335591,-5209.449386
219.920801,-1628.453072,-77425.541533,-1072.533697
219.923362,5921.647536,-75204.923707,-5975.544884
219.925922,2960.823768,-75797.088461,-2604.724693
219.928483,-2516.700203,-76241.212026,-3524.039291
219.931043,-2368.659014,-76241.212026,-919.314598
219.933603,1332.370696,-74020.594200,-3677.258390
219.936164,-2812.782580,-79942.241736,1072.533697
219.938724,-5033.400406,-75056.882519,-4136.915689
219.941285,-3701.029710,-73872.553012,-8427.050478
219.943845,-12435.459826,-77129.459156,459.657299
219.946406,7402.059420,-75945.129649,-2911.162892
219.948966,5181.441594,-78017.706287,-1991.848295
219.951527,148.041188,-78757.912229,-2757.943793
219.954087,3552.988522,-78313.788664,-2604.724693
219.956648,2368.659014,-76981.417968,-4749.792088
219.959208,-2664.741391,-78757.912229,766.095498
219.961769,4885.359217,-73576.470635,-4136.915689
219.964329,5773.606348,-76093.170838,-766.095498
219.966890,296.082377,-76241.212026,-4749.792088
219.969450,2220.617826,-73724.511823,-8120.612279
219.972011,148.041188,-73428.429446,-8427.050478
219.974571,296.082377,-78905.953417,-459.657299
219.977132,3701.029710,-74020.594200,-2451.505594
219.979692,-1480.411884,-76537.294403,3370.820191
219.982252,-8438.347739,-77721.623910,7201.297681
219.984813,-296.082377,-74168.635388,3524.039291
219.987373,-2664.741391,-77129.459156,5515.887586
219.989934,-4589.276840,-77721.623910,1991.848295
219.992494,-4737.318029,-76537.294403,153.219100
219.995055,-6069.688724,-77721.623910,-153.219100
219.997615,-6957.935855,-78313.788664,5975.544884
220.000176,296.082377,-73872.553012,612.876398
220.002736,-2220.617826,-78165.747475,8120.612279
220.005297,-6809.894666,-78165.747475,2604.724693
220.007857,-3552.988522,-75204.923707,1072.533697
220.010418,-1036.288319,-77573.582722,-1532.190996
220.012978,-3404.947333,-76981.417968,1072.533697
220.015539,11103.089130,-76537.294403,3064.381992
220.018102,-1628.453072,-78461.829852,1072.533697
220.020665,-6957.935855,-78461.829852,8580.269578
220.023228,8586.388927,-75501.006084,1991.848295
220.025791,-148.041188,-80830.488866,6741.640382
220.028354,-7105.977043,-76241.212026,1378.971896
220.030917,1628.453072,-73724.511823,2298.286494
220.033481,-3552.988522,-78609.871040,4903.011187
220.036044,-5329.482782,-77573.582722,5362.668486
220.038607,-592.164754,-72244.099939,-1072.533697
220.041170,-3997.112087,-77129.459156,3830.477490
220.043733,-3701.029710,-75797.088461,1378.971896
220.046296,1628.453072,-73132.347070,612.876398
220.048859,-2072.576638,-77721.623910,3677.258390
220.051423,-5625.565159,-76685.335591,3830.477490
220.053986,-4145.153275,-75501.006084,2757.943793
220.056549,1184.329507,-78461.829852,1225.752797
220.059112,4145.153275,-78461.829852,-1685.410096
220.061675,3849.070898,-74612.758954,-8120.612279
220.064238,-3404.947333,-80090.282924,-1838.629195
220.066801,3552.988522,-77277.500345,-2451.505594
220.069364,6809.894666,-75501.006084,-1991.848295
220.071928,4293.194464,-77129.459156,-1225.752797
220.074491,296.082377,-77277.500345,-2604.724693
220.077054,3701.029710,-76537.294403,-2757.943793
220.079617,2368.659014,-75056.882519,-6435.202183
220.082180,444.123565,-78461.829852,-919.314598
220.084743,8438.347739,-73872.553012,-5822.325785
220.087306,2960.823768,-78609.871040,153.219100
220.089870,-10066.800811,-74908.841330,-766.095498
220.092433,888.247130,-76389.253214,-4290.134789
220.094996,-6069.688724,-78461.829852,766.095498
220.097559,1332.370696,-76093.170838,-3370.820191
220.100122,-5329.482782,-73280.388258,-5975.544884
220.102685,2220.617826,-74760.800142,-3677.258390
220.105248,4145.153275,-76389.253214,-2298.286494
220.107811,6069.688724,-76241.212026,-5975.544884
220.110375,888.247130,-77721.623910,-1685.410096
220.112938,-444.123565,-77277.500345,-919.314598
220.115501,4885.359217,-77277.500345,-2451.505594
220.118064,3108.864956,-78165.747475,459.657299
220.120600,3256.906145,-75204.923707,-2145.067394
220.123136,5477.523971,-75649.047272,-7048.078582
220.125673,-1628.453072,-76389.253214,-7354.516781
220.128209,-6069.688724,-76833.376780,-3830.477490
220.130745,6217.729913,-73872.553012,-5056.230287
220.133281,592.164754,-76833.376780,3217.601092
220.135817,-6069.688724,-76389.253214,4136.915689
220.138353,-296.082377,-74908.841330,3064.381992
220.140890,-3701.029710,-77129.459156,8120.612279
220.143426,-2072.576638,-76093.170838,2145.067394
220.145962,-4293.194464,-76685.335591,1072.533697
220.148498,-5477.523971,-77721.623910,1378.971896
220.151034,-3701.029710,-76685.335591,459.657299
220.153570,-1776.494261,-76981.417968,3677.258390
220.156107,-3849.070898,-77425.541533,3983.696590
220.158643,-6513.812290,-77573.582722,6435.202183
220.161179,-592.164754,-74760.800142,459.657299
220.163715,-7994.224174,-77721.623910,1378.971896
220.166251,6217.729913,-77869.665098,1072.533697
220.168788,11103.089130,-76537.294403,459.657299
220.171324,-4885.359217,-79498.118171,2145.067394
220.173860,3256.906145,-78313.788664,9193.145976
220.176396,11843.295072,-76537.294403,2451.505594
220.178932,-4737.318029,-78609.871040,3524.039291
220.181468,-2812.782580,-74760.800142,1225.752797
220.184005,-1628.453072,-71059.770432,459.657299
220.186541,-8882.471304,-77721.623910,4290.134789
220.189077,-4145.153275,-75352.964896,2145.067394
220.191613,1332.370696,-71799.976374,-153.219100
220.194149,-4589.276840,-76981.417968,1991.848295
220.196685,-3256.906145,-76093.170838,2911.162892
220.199222,888.247130,-74020.594200,0.000000
220.201758,-5329.482782,-79202.035794,6588.421283
220.204294,-6365.771101,-78017.706287,3677.258390
220.206830,-2516.700203,-74760.800142,4903.011187
220.209366,2516.700203,-79053.994606,306.438199
220.211902,4589.276840,-76981.417968,-3217.601092
220.214439,592.164754,-73872.553012,-7967.393179
220.216975,-7254.018232,-80386.365301,-3370.820191
220.219511,3552.988522,-75797.088461,-7048.078582
220.222054,6957.935855,-74908.841330,-1378.971896
220.224598,3108.864956,-78017.706287,-766.095498
220.227141,2664.741391,-75945.129649,-3370.820191
220.229685,2664.741391,-76093.170838,-3370.820191
220.232228,-888.247130,-77573.582722,-3217.601092
220.234772,3552.988522,-75945.129649,-4903.011187
220.237315,2960.823768,-75649.047272,-6128.763984
220.239859,-6809.894666,-78017.706287,-1838.629195
220.242402,12435.459826,-74316.676577,-2757.943793
220.244945,11399.171507,-78017.706287,2604.724693
220.247489,1776.494261,-78609.871040,612.876398
220.250032,6217.729913,-77277.500345,-1685.410096
220.252576,9918.759623,-74612.758954,-1685.410096
220.255119,1628.453072,-78313.788664,-3217.601092
220.257663,4293.194464,-74168.635388,-7814.174080
220.260206,4293.194464,-74612.758954,-8886.707777
220.262750,-1332.370696,-76833.376780,-1991.848295
220.265293,4441.235652,-73428.429446,-6588.421283
220.267837,3701.029710,-77869.665098,1225.752797
220.270380,3108.864956,-76685.335591,-1991.848295
220.272923,4885.359217,-74612.758954,-3983.696590
220.275467,1480.411884,-78461.829852,-4749.792088
220.278010,-1776.494261,-79053.994606,-3064.381992
220.280554,6513.812290,-74612.758954,-7048.078582
220.283097,1628.453072,-77869.665098,3217.601092
220.285641,-6957.935855,-77573.582722,3370.820191
220.288184,-3404.947333,-76241.212026,7048.078582
220.290728,-3256.906145,-76685.335591,5362.668486
220.293271,-3849.070898,-77425.541533,5975.544884
220.295815,-2960.823768,-74168.635388,-1072.533697
220.298358,-6661.853478,-77573.582722,1072.533697
220.300901,-5773.606348,-76537.294403,-1378.971896
220.303445,-888.247130,-75501.006084,1685.410096
220.305988,-6661.853478,-76241.212026,2757.943793
220.308532,-5033.400406,-77129.459156,8886.707777
220.311075,2664.741391,-73576.470635,306.438199
220.313619,444.123565,-76241.212026,4136.915689
220.316162,-11843.295072,-75352.964896,-1685.410096
220.318706,-5033.400406,-75797.088461,-2298.286494
220.321249,-6217.729913,-76241.212026,1532.190996
220.323770,-4145.153275,-78313.788664,4749.792088
220.326290,5181.441594,-75945.129649,919.314598
220.328811,-3108.864956,-79350.076982,6588.421283
220.331331,-4737.318029,-76389.253214,3217.601092
220.333852,148.041188,-74316.676577,4443.353888
220.336372,-7994.224174,-76833.376780,4749.792088
220.338893,-1184.329507,-75945.129649,3983.696590
220.341413,-2220.617826,-74612.758954,-1072.533697
220.343934,-5477.523971,-76241.212026,2298.286494
220.346455,-5033.400406,-76981.417968,-459.657299
220.348975,-888.247130,-75056.882519,1991.848295
220.351496,3701.029710,-77277.500345,5515.887586
220.354016,-6217.729913,-77129.459156,6435.202183
220.356537,2812.782580,-75352.964896,2604.724693
220.359057,3849.070898,-78313.788664,-153.219100
220.361578,2368.659014,-75797.088461,-6435.202183
220.364098,2072.576638,-73872.553012,-9039.926876
220.366619,-148.041188,-79646.159359,-2298.286494
220.369140,11991.336260,-74760.800142,-4596.572988
220.371660,2368.659014,-74908.841330,-1532.190996
220.374181,1036.288319,-78461.829852,-306.438199
220.376701,-1480.411884,-77277.500345,-306.438199
220.379222,7550.100608,-74908.841330,-5362.668486
220.381742,-1480.411884,-79646.159359,-1685.410096
220.384263,592.164754,-76389.253214,-4749.792088
220.386783,7402.059420,-75056.882519,-4749.792088
220.389304,3256.906145,-80682.447678,2451.505594
220.391825,8882.471304,-72688.223504,-3370.820191
220.394345,5921.647536,-77573.582722,459.657299
220.396866,7698.141797,-78017.706287,1685.410096
220.399386,7402.059420,-73280.388258,-2911.162892
220.401907,4293.194464,-72836.264693,-7354.516781
220.404427,740.205942,-79794.200548,-459.657299
220.406948,1036.288319,-75352.964896,-7814.174080
220.409469,6069.688724,-75797.088461,-3983.696590
220.411989,-3108.864956,-77425.541533,-1838.629195
220.414510,5181.441594,-74612.758954,-919.314598
220.417030,8734.430116,-76093.170838,-3370.820191
220.419551,1184.329507,-78017.706287,0.000000
220.422071,7254.018232,-73280.388258,-8427.050478
220.424574,-148.041188,-78017.706287,-3370.820191
220.427077,2516.700203,-78165.747475,-3983.696590
220.429579,6365.771101,-74760.800142,-3830.477490
220.432082,-4145.153275,-75501.006084,2604.724693
220.434584,-9178.553681,-78757.912229,7048.078582
220.437087,-3108.864956,-76241.212026,6435.202183
220.439590,-444.123565,-76833.376780,5209.449386
220.442092,-8586.388927,-77869.665098,4290.134789
220.444595,1036.288319,-75797.088461,-1532.190996
220.447098,-2960.823768,-76833.376780,-1532.190996
220.449600,-7254.018232,-77869.665098,2451.505594
220.452103,-1628.453072,-74316.676577,612.876398
220.454606,-5921.647536,-77573.582722,6588.421283
220.457108,-7105.977043,-76981.417968,4749.792088
220.459611,-1036.288319,-74760.800142,2757.943793
220.462114,9030.512492,-74168.635388,1225.752797
220.464616,-3108.864956,-79202.035794,1072.533697
220.467119,-592.164754,-76241.212026,-2145.067394
220.469621,5477.523971,-77721.623910,3983.696590
220.472124,-8586.388927,-76981.417968,1838.629195
220.474627,2960.823768,-75945.129649,2298.286494
220.477129,-2664.741391,-75501.006084,4443.353888
220.479632,-5329.482782,-76537.294403,7354.516781
220.482135,-2516.700203,-74760.800142,1685.410096
220.484637,-2664.741391,-75797.088461,2298.286494
220.487140,-7846.182985,-76537.294403,-306.438199
220.489643,-1332.370696,-74612.758954,-1378.971896
220.492145,-148.041188,-74020.594200,-1532.190996
220.494648,-2960.823768,-76981.417968,6741.640382
220.497150,-3404.947333,-75649.047272,4136.915689
220.499653,0.000000,-75797.088461,4596.572988
220.502156,1628.453072,-78313.788664,-459.657299
220.504658,3552.988522,-75945.129649,-6435.202183
220.507161,1332.370696,-75945.129649,-9959.241474
220.509664,-2368.659014,-79202.035794,-3370.820191
220.512166,6957.935855,-74612.758954,-9806.022374
220.514669,1332.370696,-78461.829852,3217.601092
220.517172,444.123565,-75501.006084,-612.876398
220.519674,4885.359217,-75056.882519,-1838.629195
220.522177,-740.205942,-78313.788664,-5056.230287
220.524694,444.123565,-77573.582722,-2911.162892
220.527212,3552.988522,-76389.253214,-6435.202183
220.529729,7550.100608,-76389.253214,-3064.381992
220.532246,-12583.501014,-77129.459156,-1378.971896
220.534764,4737.318029,-74908.841330,-3677.258390
220.537281,2072.576638,-75945.129649,1072.533697
220.539799,1628.453072,-77129.459156,2604.724693
220.542316,7550.100608,-73724.511823,-4290.134789
220.544833,6809.894666,-80830.488866,-459.657299
220.547351,1184.329507,-76093.170838,-6128.763984
220.549868,3552.988522,-76241.212026,-7201.297681
220.552386,5329.482782,-76981.417968,-5669.106685
220.554903,-296.082377,-78609.871040,1685.410096
220.557421,4441.235652,-74168.635388,-4596.572988
220.559938,1924.535449,-77425.541533,-919.314598
220.562455,-1776.494261,-76241.212026,-3524.039291
220.564973,3552.988522,-74464.717765,-8427.050478
220.567490,-296.082377,-77869.665098,-4596.572988
220.570008,1480.411884,-76389.253214,-3370.820191
220.572525,3256.906145,-75204.923707,-2604.724693
220.575042,-9474.636058,-78313.788664,6894.859482
220.577560,-6809.894666,-75649.047272,5056.230287
220.580077,-1776.494261,-76981.417968,7967.393179
220.582595,-3256.906145,-77425.541533,2145.067394
220.585112,-4293.194464,-77721.623910,8427.050478
220.587629,2368.659014,-74464.717765,-7507.735880
220.590147,-6513.812290,-81422.653620,5822.325785
220.592664,-3404.947333,-74760.800142,-1378.971896
220.595182,1924.535449,-76981.417968,5362.668486
220.597699,-2072.576638,-77869.665098,6741.640382
220.600216,-6365.771101,-75204.923707,3983.696590
220.602734,10510.924376,-76981.417968,2911.162892
220.605251,1184.329507,-77277.500345,1225.752797
220.607769,-296.082377,-76241.212026,-4136.915689
220.610286,2220.617826,-78165.747475,2451.505594
220.612803,-8290.306550,-79053.994606,6128.763984
220.615321,-8290.306550,-76093.170838,2298.286494
220.617838,-1628.453072,-76093.170838,5669.106685
220.620356,-8438.347739,-75945.129649,6588.421283
220.622873,-2960.823768,-77129.459156,5209.449386
220.625403,-3404.947333,-76389.253214,306.438199
220.627933,-8290.306550,-76981.417968,2451.505594
220.630463,-3552.988522,-76833.376780,0.000000
220.632993,-3256.906145,-77277.500345,1072.533697
220.635523,-5329.482782,-76537.294403,3983.696590
220.638052,-5181.441594,-75649.047272,3217.601092
220.640582,-3997.112087,-76389.253214,6741.640382
220.643112,3404.947333,-76685.335591,2451.505594
220.645642,4145.153275,-76093.170838,-4290.134789
220.648172,3701.029710,-74612.758954,-11491.432470
220.650702,-3256.906145,-78609.871040,-4443.353888
220.653232,8882.471304,-75649.047272,-8120.612279
220.655762,7402.059420,-76389.253214,-1685.410096
220.658292,2220.617826,-77721.623910,1685.410096
220.660822,5625.565159,-75797.088461,-2451.505594
220.663352,0.000000,-77721.623910,-612.876398
220.665882,740.205942,-75501.006084,-5056.230287
220.668412,5921.647536,-75797.088461,-6128.763984
220.670942,-296.082377,-76389.253214,-7354.516781
220.673471,-2072.576638,-76833.376780,-459.657299
220.676001,2664.741391,-76389.253214,2911.162892
220.678531,4737.318029,-76685.335591,612.876398
220.681061,3256.906145,-80238.324113,1072.533697
220.683591,1776.494261,-73576.470635,-3370.820191
220.686121,6661.853478,-76093.170838,-6281.983084
220.688651,740.205942,-76685.335591,-5056.230287
220.691181,5773.606348,-73576.470635,-9652.803275
220.693711,740.205942,-76685.335591,-3217.601092
220.696241,-444.123565,-76241.212026,-2298.286494
220.698771,7994.224174,-74612.758954,-1991.848295
220.701301,2812.782580,-76685.335591,-2298.286494
220.703831,1036.288319,-78165.747475,-1072.533697
220.706360,6513.812290,-75204.923707,-5822.325785
220.708890,592.164754,-77277.500345,-3524.039291
220.711420,148.041188,-79053.994606,-2145.067394
220.713950,-296.082377,-75649.047272,919.314598
220.716480,-6809.894666,-78017.706287,7814.174080
220.719010,-3997.112087,-76981.417968,8733.488677
220.721540,-1628.453072,-75204.923707,5822.325785
220.724070,-4885.359217,-76833.376780,3064.381992
220.726610,-7105.977043,-75797.088461,2298.286494
220.729150,-1036.288319,-74020.594200,-5822.325785
220.731690,-5477.523971,-78905.953417,3830.477490
220.734230,-4885.359217,-76093.170838,919.314598
220.736770,592.164754,-75056.882519,5056.230287
220.739309,-5329.482782,-77277.500345,6435.202183
220.741849,-1924.535449,-77277.500345,6128.763984
220.744389,-8142.265362,-75797.088461,-2757.943793
220.746929,-8734.430116,-77277.500345,-766.095498
220.749469,-3404.947333,-77869.665098,-1378.971896
220.752009,-7846.182985,-75352.964896,-1225.752797
220.754549,-8586.388927,-77425.541533,4136.915689
220.757089,-1924.535449,-78461.829852,5515.887586
220.759629,-5477.523971,-75945.129649,6894.859482
220.762169,-6217.729913,-77573.582722,7814.174080
220.764709,-3108.864956,-77129.459156,2911.162892
220.767248,-2220.617826,-74316.676577,-2757.943793
220.769788,-6365.771101,-78757.912229,4136.915689
220.772328,-3849.070898,-76537.294403,306.438199
220.774868,1332.370696,-75797.088461,3064.381992
220.777408,-9770.718434,-78165.747475,6588.421283
220.779948,-2220.617826,-76389.253214,7660.954980
220.782488,9918.759623,-75204.923707,-306.438199
220.785028,2516.700203,-77425.541533,-1378.971896
220.787568,1332.370696,-74168.635388,-13176.842566
220.790108,296.082377,-77573.582722,-7814.174080
220.792648,3997.112087,-77721.623910,-7354.516781
220.795188,4293.194464,-75649.047272,153.219100
220.797727,6069.688724,-74464.717765,-1072.533697
220.800267,296.082377,-78609.871040,2298.286494
220.802807,888.247130,-75797.088461,-1378.971896
220.805347,6069.688724,-74760.800142,-7048.078582
220.807887,-1036.288319,-77721.623910,-4136.915689
220.810427,-1628.453072,-74020.594200,-9652.803275
220.812967,13027.624579,-78017.706287,-766.095498
220.815507,0.000000,-76389.253214,306.438199
220.818047,888.247130,-74612.758954,1378.971896
220.820587,-1184.329507,-75204.923707,-2298.286494
220.823127,6069.688724,-79646.159359,459.657299
220.825666,3108.864956,-72836.264693,-9499.584175
220.828219,4589.276840,-75945.129649,-6281.983084
220.830768,740.205942,-77721.623910,-5822.325785
220.833316,2960.823768,-76389.253214,-2145.067394
220.835865,5033.400406,-76093.170838,-1225.752797
220.838413,2516.700203,-78905.953417,459.657299
220.840962,3552.988522,-74464.717765,-2604.724693
220.843510,444.123565,-77277.500345,-3830.477490
220.846059,148.041188,-77277.500345,-4749.792088
220.848607,4885.359217,-75352.964896,-8886.707777
220.851156,592.164754,-77573.582722,-1072.533697
220.853704,-4737.318029,-76981.417968,3524.039291
220.856253,-2960.823768,-74316.676577,6281.983084
220.858801,1036.288319,-77129.459156,9806.022374
220.861350,-4737.318029,-77425.541533,7507.735880
220.863898,3404.947333,-76241.212026,4443.353888
220.866447,-148.041188,-76537.294403,-3524.039291
220.868995,-7698.141797,-78905.953417,1991.848295
220.871544,148.041188,-73280.388258,-3983.696590
220.874092,-3701.029710,-77721.623910,5822.325785
220.876641,-3108.864956,-75649.047272,6128.763984
220.879189,1184.329507,-74760.800142,6281.983084
220.881738,-10510.924376,-78757.912229,2911.162892
220.884286,-13471.748144,-76093.170838,-4903.011187
220.886835,-5773.606348,-74464.717765,-5822.325785
220.889383,2664.741391,-74020.594200,-1685.410096
220.891932,-7105.977043,-75056.882519,1685.410096
220.894480,-5773.606348,-76241.212026,6741.640382
220.897029,148.041188,-73280.388258,4596.572988
220.899577,-7698.141797,-78313.788664,6435.202183
220.902126,-4145.153275,-75056.882519,153.219100
220.904674,-3108.864956,-74464.717765,-2145.067394
220.907223,-8142.265362,-78017.706287,2298.286494
220.909772,740.205942,-75945.129649,919.314598
220.912320,1628.453072,-76685.335591,3830.477490
220.914869,-11399.171507,-79202.035794,10418.898773
220.917417,1776.494261,-76241.212026,7048.078582
220.919966,5477.523971,-77869.665098,459.657299
220.922514,2220.617826,-78017.706287,-3830.477490
220.925063,296.082377,-75352.964896,-12257.527968
220.927611,2664.741391,-77573.582722,-7660.954980
220.930166,2220.617826,-76537.294403,-8886.707777
220.932721,5921.647536,-74760.800142,1072.533697
220.935276,4293.194464,-75501.006084,-1685.410096
220.937832,-592.164754,-78313.788664,3983.696590
220.940387,2368.659014,-73872.553012,-4596.572988
220.942942,2220.617826,-77277.500345,-4596.572988
220.945497,4589.276840,-77869.665098,-5975.544884
220.948052,3849.070898,-76093.170838,-7967.393179
220.950607,2812.782580,-77721.623910,0.000000
220.953162,-2960.823768,-78609.871040,5056.230287
220.955717,-4589.276840,-74464.717765,-1378.971896
220.958273,2368.659014,-78609.871040,-766.095498
220.960828,-740.205942,-74760.800142,-4136.915689
220.963383,6661.853478,-75797.088461,-8427.050478
220.965938,3849.070898,-76093.170838,-8120.612279
220.968493,-1776.494261,-75945.129649,-3524.039291
220.971048,6513.812290,-74760.800142,-4903.011187
220.973603,6365.771101,-78757.912229,1072.533697
220.976158,1480.411884,-76093.170838,-2298.286494
220.978714,4293.194464,-76093.170838,-3370.820191
220.981269,-1480.411884,-78461.829852,-3830.477490
220.983824,0.000000,-77573.582722,-3983.696590
220.986379,4885.359217,-75352.964896,-5362.668486
220.988934,-5033.400406,-77721.623910,2604.724693
220.991489,-8290.306550,-77721.623910,7814.174080
220.994044,-1036.288319,-74612.758954,7814.174080
220.996600,-1628.453072,-77425.541533,9806.022374
220.999155,-5921.647536,-76389.253214,4136.915689
221.001710,444.123565,-75945.129649,-1378.971896
221.004265,-5477.523971,-77573.582722,-1072.533697
221.006820,-4145.153275,-76241.212026,-1838.629195
221.009375,444.123565,-75501.006084,459.657299
221.011930,-4885.359217,-76833.376780,7048.078582
221.014485,-1776.494261,-78461.829852,9806.022374
221.017041,-10807.006753,-74908.841330,919.314598
221.019596,-8142.265362,-76389.253214,-1225.752797
221.022151,2220.617826,-78905.953417,-3217.601092
221.024706,8290.306550,-75501.006084,-306.438199
221.027261,-3997.112087,-79498.118171,5669.106685
221.029816,-11251.130318,-79350.076982,8733.488677
221.032377,2960.823768,-75352.964896,7048.078582
221.034937,-5033.400406,-76685.335591,7967.393179
221.037498,-1036.288319,-75352.964896,3830.477490
221.040059,-3108.864956,-74908.841330,-2145.067394
221.042619,-9030.512492,-78165.747475,612.876398
221.045180,-1332.370696,-76981.417968,1225.752797
221.047740,-1036.288319,-74908.841330,0.000000
221.050301,-8290.306550,-77277.500345,9499.584175
221.052862,-592.164754,-74908.841330,5209.449386
221.055422,10807.006753,-75501.006084,612.876398
221.057983,2368.659014,-77869.665098,-3983.696590
221.060544,148.041188,-75797.088461,-11951.089769
221.063104,5477.523971,-76833.376780,-9499.584175
221.065665,10955.047942,-78165.747475,-5669.106685
221.068225,8142.265362,-76093.170838,-2145.067394
221.070786,5773.606348,-77129.459156,2604.724693
221.073347,592.164754,-80090.282924,6128.763984
221.075907,1332.370696,-76093.170838,-1991.848295
221.078468,5477.523971,-74760.800142,-6435.202183
221.081028,-3701.029710,-78017.706287,-7967.393179
221.083589,13471.748144,-76093.170838,-6281.983084
221.086150,12879.583391,-76241.212026,153.219100
221.088710,6069.688724,-77721.623910,3983.696590
221.091271,10066.800811,-74316.676577,306.438199
221.093831,3997.112087,-75352.964896,-3217.601092
221.096392,1776.494261,-75501.006084,-4596.572988
221.098953,6217.729913,-72540.182316,-10265.679673
221.101513,2072.576638,-76537.294403,-9193.145976
221.104074,-2812.782580,-75649.047272,-4596.572988
221.106635,4145.153275,-74464.717765,-3677.258390
221.109195,9326.594869,-74612.758954,-2298.286494
221.111756,-2072.576638,-78313.788664,459.657299
221.114321,1776.494261,-75352.964896,-3983.696590
221.116887,8734.430116,-76241.212026,-4136.915689
221.119452,3552.988522,-80534.406490,-3370.820191
221.122017,-2220.617826,-75501.006084,-5209.449386
221.124583,-5181.441594,-78165.747475,4290.134789
221.127148,-9622.677246,-76981.417968,5515.887586
221.129714,1924.535449,-74908.841330,10418.898773
221.132279,296.082377,-75945.129649,7660.954980
221.134845,-12583.501014,-78313.788664,4443.353888
221.137410,-2960.823768,-75204.923707,-2604.724693
221.139976,1332.370696,-75352.964896,-2604.724693
221.142541,-4737.318029,-76981.417968,1991.848295
221.145106,-1628.453072,-74020.594200,0.000000
221.147672,-3256.906145,-77869.665098,8733.488677
221.150237,-2812.782580,-78313.788664,7507.735880
221.152803,1924.535449,-73280.388258,1532.190996
221.155368,3404.947333,-78017.706287,-2757.943793
221.157934,3997.112087,-76833.376780,919.314598
221.160499,-1184.329507,-72984.305881,-4903.011187
221.163064,-6661.853478,-79053.994606,5822.325785
221.165630,-3108.864956,-76685.335591,8733.488677
221.168195,888.247130,-73872.553012,6741.640382
221.170761,-1036.288319,-77573.582722,5669.106685
221.173326,-6365.771101,-76685.335591,1685.410096
221.175892,-2220.617826,-74760.800142,-919.314598
221.178457,-1776.494261,-77869.665098,-2145.067394
221.181023,296.082377,-77277.500345,4290.134789
221.183588,592.164754,-74908.841330,3370.820191
221.186153,-2516.700203,-78017.706287,8427.050478
221.188719,4293.194464,-77129.459156,1532.190996
221.191284,7846.182985,-74168.635388,-5209.449386
221.193850,-592.164754,-77721.623910,-8120.612279
221.196415,1776.494261,-76981.417968,-9193.145976
221.198981,4145.153275,-74020.594200,-11491.432470
221.201546,3404.947333,-77573.582722,153.219100
221.204111,2368.659014,-75945.129649,459.657299
221.206677,5921.647536,-76981.417968,1532.190996
221.209242,1480.411884,-77425.541533,-153.219100
221.211808,3552.988522,-76537.294403,-2145.067394
221.214373,4145.153275,-74168.635388,-11644.651570
221.216943,10807.006753,-79202.035794,-3370.820191
221.219512,1628.453072,-75649.047272,-5362.668486
221.222082,-444.123565,-74908.841330,1685.410096
221.224651,-2812.782580,-74908.841330,1838.629195
221.227220,8586.388927,-78461.829852,1072.533697
221.229790,10066.800811,-72392.141128,-9652.803275
221.232359,-1628.453072,-77721.623910,-5822.325785
221.234929,-592.164754,-76241.212026,-8120.612279
221.237498,7846.182985,-74760.800142,-5975.544884
221.240067,4145.153275,-77721.623910,-1991.848295
221.242637,1924.535449,-77573.582722,612.876398
221.245206,2516.700203,-74908.841330,-1991.848295
221.247776,-3552.988522,-78757.912229,2451.505594
221.250345,3552.988522,-76389.253214,-5669.106685
221.252915,2516.700203,-75204.923707,-7814.174080
221.255484,-9474.636058,-78461.829852,-612.876398
221.258053,-6365.771101,-75352.964896,4596.572988
221.260623,-1480.411884,-76093.170838,9193.145976
221.263192,-4441.235652,-76981.417968,9499.584175
221.265762,-9178.553681,-76241.212026,7660.954980
221.268331,-2516.700203,-73872.553012,-1991.848295
221.270901,-7105.977043,-78757.912229,306.438199
221.273470,-3997.112087,-75501.006084,-3677.258390
221.276039,148.041188,-75797.088461,-1225.752797
221.278609,-5773.606348,-79498.118171,6435.202183
221.281178,5921.647536,-76685.335591,7660.954980
221.283748,-888.247130,-75649.047272,8886.707777
221.286317,-4441.235652,-78905.953417,5209.449386
221.288887,-1184.329507,-77721.623910,-2757.943793
221.291456,-888.247130,-76241.212026,-2145.067394
221.294025,-6069.688724,-79350.076982,6894.859482
221.296595,-4145.153275,-78905.953417,7201.297681
221.299164,-2368.659014,-74760.800142,5822.325785
221.301734,-8882.471304,-77277.500345,8120.612279
221.304303,-1924.535449,-75204.923707,2451.505594
221.306872,-3256.906145,-75501.006084,0.000000
221.309442,-6513.812290,-76093.170838,-153.219100
221.312011,-148.041188,-75945.129649,-306.438199
221.314581,-1184.329507,-74612.758954,1532.190996
221.317150,-3701.029710,-76685.335591,7354.516781
221.319722,6661.853478,-75352.964896,1685.410096
221.322294,8438.347739,-72540.182316,-9193.145976
221.324867,-4145.153275,-77721.623910,-7507.735880
221.327439,-296.082377,-76093.170838,-10878.556072
221.330011,9326.594869,-74168.635388,-11031.775171
221.332583,2960.823768,-78313.788664,-612.876398
221.335155,3552.988522,-76093.170838,-153.219100
221.337727,6365.771101,-77425.541533,1685.410096
221.340300,-444.123565,-78461.829852,1685.410096
221.342872,5477.523971,-75352.964896,-3370.820191
221.345444,7254.018232,-75501.006084,-8273.831378
221.348016,5033.400406,-77277.500345,-4443.353888
221.350588,6661.853478,-76241.212026,-5209.449386
221.353160,-2960.823768,-75056.882519,3524.039291
221.355733,1332.370696,-77129.459156,919.314598
221.358305,7994.224174,-78313.788664,0.000000
221.360877,5773.606348,-72836.264693,-9806.022374
221.363449,296.082377,-79053.994606,-3217.601092
221.366021,4737.318029,-74464.717765,-9806.022374
221.368593,9918.759623,-74464.717765,-6128.763984
221.371165,5181.441594,-77869.665098,-2451.505594
221.373738,1628.453072,-75649.047272,-3064.381992
221.376310,3256.906145,-76241.212026,306.438199
221.378882,2072.576638,-77721.623910,306.438199
221.381454,8290.306550,-75945.129649,-5975.544884
221.384026,-2664.741391,-75056.882519,-5515.887586
221.386598,-9770.718434,-78017.706287,3677.258390
221.389171,-3701.029710,-76093.170838,3217.601092
221.391743,1332.370696,-75649.047272,10418.898773
221.394315,-6809.894666,-77129.459156,9806.022374
221.396887,-6809.894666,-75649.047272,3677.258390
221.399459,-2664.741391,-75945.129649,766.095498
221.402031,-6365.771101,-78017.706287,306.438199
221.404603,-1332.370696,-75056.882519,-4290.134789
221.407176,-3849.070898,-77129.459156,2451.505594
221.409748,-9474.636058,-76833.376780,3983.696590
221.412320,2516.700203,-75649.047272,6435.202183
221.414892,592.164754,-75945.129649,3217.601092
221.417464,3849.070898,-79942.241736,2604.724693
221.420036,8290.306550,-75797.088461,-1532.190996
221.422610,740.205942,-75501.006084,1225.752797
221.425184,-5625.565159,-75501.006084,1838.629195
221.427758,-2220.617826,-73428.429446,2757.943793
221.430331,-4441.235652,-73872.553012,4443.353888
221.432905,-7550.100608,-76833.376780,7814.174080
221.435479,-1036.288319,-74316.676577,-612.876398
221.438053,-5625.565159,-78461.829852,2911.162892
221.440627,-3552.988522,-78757.912229,0.000000
221.443200,-6513.812290,-77129.459156,3064.381992
221.445774,2960.823768,-76093.170838,4903.011187
221.448348,2072.576638,-80830.488866,5975.544884
221.450922,6957.935855,-76093.170838,-3217.601092
221.453495,148.041188,-78313.788664,-6741.640382
221.456069,-2072.576638,-79053.994606,-6281.983084
221.458643,10362.883188,-73576.470635,-13636.499864
221.461217,6957.935855,-78165.747475,-1072.533697
221.463791,444.123565,-76093.170838,-4290.134789
221.466364,1332.370696,-74020.594200,153.219100
221.468938,1036.288319,-77721.623910,-153.219100
221.471512,-888.247130,-74908.841330,-2298.286494
221.474086,1184.329507,-73576.470635,-9039.926876
221.476659,7846.182985,-80978.530055,-3524.039291
221.479233,3701.029710,-78905.953417,-2451.505594
221.481807,5625.565159,-74020.594200,1532.190996
221.484381,2368.659014,-76537.294403,-1072.533697
221.486955,5477.523971,-80090.282924,919.314598
221.489528,7994.224174,-71799.976374,-8580.269578
221.492102,-3701.029710,-77277.500345,-4290.134789
221.494676,3701.029710,-75945.129649,-8120.612279
221.497250,7846.182985,-73576.470635,-9193.145976
221.499823,1628.453072,-78313.788664,-2451.505594
221.502397,3849.070898,-75056.882519,-3217.601092
221.504971,2960.823768,-76241.212026,-153.219100
221.507545,2664.741391,-75797.088461,-3064.381992
221.510119,444.123565,-78905.953417,-2145.067394
221.512692,-148.041188,-74316.676577,-6588.421283
221.515266,-8290.306550,-80682.447678,6281.983084
221.517840,-3256.906145,-75797.088461,2911.162892
221.520414,1036.288319,-75352.964896,10265.679673
221.522987,-4885.359217,-77129.459156,7967.393179
221.525563,-5477.523971,-75945.129649,6435.202183
221.528138,296.082377,-76093.170838,-1532.190996
221.530713,-8290.306550,-78461.829852,1685.410096
221.533288,-3849.070898,-74464.717765,-3064.381992
221.535863,-2072.576638,-76833.376780,1378.971896
221.538438,-5181.441594,-78313.788664,7507.735880
221.541014,3256.906145,-76685.335591,8580.269578
221.543589,-5477.523971,-75797.088461,919.314598
221.546164,-10066.800811,-80682.447678,2604.724693
221.548739,-7846.182985,-78313.788664,0.000000
221.551314,-3404.947333,-74020.594200,2298.286494
221.553889,-8142.265362,-79942.241736,6281.983084
221.556465,-4145.153275,-75797.088461,6588.421283
221.559040,-3256.906145,-75797.088461,4443.353888
221.561615,-7254.018232,-78165.747475,8120.612279
221.564190,1628.453072,-72984.305881,-766.095498
221.566765,-888.247130,-76833.376780,612.876398
221.569340,-8734.430116,-78757.912229,1532.190996
221.571915,-4293.194464,-75797.088461,7048.078582
221.574491,7402.059420,-73724.511823,-1685.410096
221.577066,-296.082377,-79942.241736,6588.421283
221.579641,2072.576638,-72540.182316,-11031.775171
221.582216,-1332.370696,-77721.623910,-4596.572988
221.584791,2812.782580,-77573.582722,-11031.775171
221.587366,8290.306550,-74464.717765,-5975.544884
221.589942,4293.194464,-76093.170838,-3217.601092
221.592517,-1036.288319,-78017.706287,612.876398
221.595092,5625.565159,-75797.088461,612.876398
221.597667,3256.906145,-76241.212026,-1532.190996
221.600242,592.164754,-77129.459156,-1685.410096
221.602817,3404.947333,-77277.500345,-9193.145976
221.605393,1776.494261,-73872.553012,-8886.707777
221.607968,-1628.453072,-77425.541533,-306.438199
221.610543,12731.542202,-72984.305881,-2298.286494
221.613118,5181.441594,-76537.294403,-1838.629195
221.615693,-148.041188,-77277.500345,-2298.286494
221.618268,6661.853478,-73576.470635,-7354.516781
221.620844,3849.070898,-79498.118171,-5209.449386
221.623419,3997.112087,-77129.459156,-6588.421283
221.625994,8142.265362,-76685.335591,-4596.572988
221.628570,1480.411884,-78609.871040,-2298.286494
221.631147,-148.041188,-80090.282924,4290.134789
221.633724,7254.018232,-73428.429446,-4443.353888
221.636300,3108.864956,-79350.076982,153.219100
221.638877,-6661.853478,-76981.417968,-3830.477490
221.641453,-5033.400406,-75501.006084,1225.752797
221.644030,-4145.153275,-76981.417968,2145.067394
221.646606,-4293.194464,-76389.253214,11184.994271
221.649183,2516.700203,-73576.470635,4596.572988
221.651760,-10214.842000,-77869.665098,7048.078582
221.654336,-2072.576638,-77277.500345,1532.190996
221.656913,1480.411884,-74464.717765,-3370.820191
221.659489,-5033.400406,-78461.829852,1685.410096
221.662066,-2812.782580,-76389.253214,1378.971896
221.664642,-1332.370696,-73428.429446,2145.067394
221.667219,2812.782580,-79053.994606,8273.831378
221.669796,-15100.201217,-76833.376780,4290.134789
221.672372,-11103.089130,-76241.212026,-3830.477490
221.674949,-1628.453072,-81422.653620,4903.011187
221.677525,-7402.059420,-74908.841330,1072.533697
221.680102,-3256.906145,-76537.294403,3983.696590
221.682678,-4589.276840,-79053.994606,10265.679673
221.685255,-5329.482782,-74464.717765,4443.353888
221.687831,-740.205942,-76389.253214,4443.353888
221.690408,-3849.070898,-76241.212026,1378.971896
221.692985,-5921.647536,-75352.964896,-919.314598
221.695561,-2516.700203,-75204.923707,-153.219100
221.698138,-1924.535449,-78165.747475,7507.735880
221.700714,4145.153275,-74168.635388,-153.219100
221.703291,7105.977043,-76093.170838,-306.438199
221.705867,-1776.494261,-76093.170838,-9039.926876
221.708444,592.164754,-77277.500345,-5669.106685
221.711021,6513.812290,-75797.088461,-13483.280765
221.713597,-1036.288319,-78609.871040,-2604.724693
221.716174,2368.659014,-74612.758954,-3830.477490
221.718750,4293.194464,-76241.212026,-2145.067394
221.721327,-1628.453072,-78609.871040,2911.162892
221.723903,6365.771101,-74908.841330,-3677.258390
221.726480,15988.448347,-77425.541533,-3524.039291
221.729057,-1480.411884,-78017.706287,-3830.477490
221.731634,-5921.647536,-76537.294403,-1378.971896
221.734211,-4885.359217,-75352.964896,-2757.943793
221.736788,1628.453072,-77277.500345,766.095498
221.739365,4589.276840,-78609.871040,-919.314598
221.741942,4145.153275,-75056.882519,-6894.859482
221.744519,2812.782580,-79794.200548,-3677.258390
221.747096,444.123565,-76537.294403,-6894.859482
221.749673,7846.182985,-75649.047272,-5056.230287
221.752250,2368.659014,-77277.500345,-4290.134789
221.754827,148.041188,-76537.294403,-153.219100
221.757404,5477.523971,-74612.758954,-4290.134789
221.759981,2516.700203,-78313.788664,-306.438199
221.762558,-5477.523971,-76537.294403,-2298.286494
221.765135,-2368.659014,-75056.882519,-306.438199
221.767712,-6957.935855,-76833.376780,3217.601092
221.770289,-2072.576638,-76389.253214,9652.803275
221.772866,1924.535449,-74760.800142,5515.887586
221.775443,-9326.594869,-78165.747475,6128.763984
221.778020,-9326.594869,-78313.788664,3064.381992
221.780597,-2368.659014,-75204.923707,-4290.134789
221.783174,-4293.194464,-79053.994606,3983.696590
221.785751,-2368.659014,-76389.253214,0.000000
221.788328,6809.894666,-78165.747475,5975.544884
221.790905,5921.647536,-78165.747475,5822.325785
221.793482,-13619.789333,-77573.582722,4903.011187
221.796059,-8882.471304,-76241.212026,-4290.134789
221.798636,-7254.018232,-79202.035794,3830.477490
221.801213,-3701.029710,-76093.170838,2298.286494
221.803790,-4737.318029,-76981.417968,3677.258390
221.806367,-9622.677246,-77721.623910,8120.612279
221.808944,-3256.906145,-75797.088461,6128.763984
221.811521,-592.164754,-75352.964896,1991.848295
221.814098,-6809.894666,-78313.788664,4290.134789
221.816675,1628.453072,-73724.511823,-2911.162892
221.819252,-7105.977043,-77573.582722,3524.039291
221.821829,-740.205942,-76389.253214,1532.190996
221.824406,7698.141797,-77573.582722,3983.696590
221.826983,8142.265362,-74464.717765,-7048.078582
221.829560,-4293.194464,-77573.582722,-4903.011187
221.832137,2220.617826,-75797.088461,-8427.050478
221.834718,10807.006753,-74908.841330,-11644.651570
221.837296,2664.741391,-78905.953417,612.876398
221.839873,2812.782580,-73428.429446,-6281.983084
221.842451,3701.029710,-77129.459156,2451.505594
221.845028,740.205942,-77573.582722,-612.876398
221.847606,4885.359217,-74760.800142,-4443.353888
221.850183,-3404.947333,-75797.088461,-7048.078582
221.852761,-2220.617826,-79794.200548,-3830.477490
221.855339,3552.988522,-76093.170838,-3983.696590
221.857916,13027.624579,-75056.882519,-2145.067394
221.860494,296.082377,-78461.829852,766.095498
221.863071,3997.112087,-75352.964896,-4290.134789
221.865649,7846.182985,-75501.006084,-5056.230287
221.868226,-2072.576638,-78609.871040,-4596.572988
221.870804,5625.565159,-74612.758954,-10265.679673
221.873381,5033.400406,-76981.417968,-3677.258390
221.875959,-592.164754,-77573.582722,-3677.258390
221.878536,3849.070898,-75056.882519,-1225.752797
221.881114,3108.864956,-76389.253214,-1225.752797
221.883691,-2220.617826,-79498.118171,1378.971896
221.886269,-3552.988522,-75797.088461,-4290.134789
221.888846,-3701.029710,-76537.294403,4596.572988
221.891424,-6217.729913,-78461.829852,6894.859482
221.894001,444.123565,-75352.964896,6741.640382
221.896579,-2664.741391,-76685.335591,8120.612279
221.899156,-11547.212695,-77869.665098,4443.353888
221.901734,-296.082377,-74612.758954,-459.657299
221.904311,-2516.700203,-76389.253214,-1225.752797
221.906889,-4589.276840,-78165.747475,766.095498
221.909466,-7698.141797,-72836.264693,-766.095498
221.912044,-1036.288319,-79350.076982,8733.488677
221.914622,3849.070898,-75797.088461,6281.983084
221.917199,592.164754,-75352.964896,-919.314598
221.919777,-6365.771101,-78313.788664,306.438199
221.922354,-6217.729913,-76241.212026,4749.792088
221.924932,-2368.659014,-75352.964896,2757.943793
221.927509,-2664.741391,-78461.829852,7967.393179
221.930087,-4589.276840,-75204.923707,3677.258390
221.932664,-2812.782580,-74612.758954,3064.381992
221.935242,-5477.523971,-76537.294403,2757.943793
221.937790,-4293.194464,-75204.923707,-766.095498
221.940339,-2220.617826,-75352.964896,-153.219100
221.942887,-5329.482782,-78017.706287,7660.954980
221.945436,444.123565,-76833.376780,1991.848295
221.947984,8290.306550,-74316.676577,-3524.039291
221.950533,-444.123565,-76537.294403,-8273.831378
221.953081,-2220.617826,-78313.788664,-4903.011187
221.955630,8142.265362,-74464.717765,-13483.280765
221.958178,1332.370696,-79350.076982,0.000000
221.960727,2072.576638,-74464.717765,-4596.572988
221.963276,5477.523971,-75352.964896,-919.314598
221.965824,888.247130,-77721.623910,-459.657299
221.968373,2072.576638,-75649.047272,-2757.943793
221.970921,-1776.494261,-73428.429446,-8427.050478
221.973470,-1036.288319,-80386.365301,-3677.258390
221.976018,-2368.659014,-74760.800142,-4903.011187
221.978567,6809.894666,-73132.347070,-3983.696590
221.981115,-296.082377,-76241.212026,0.000000
221.983664,4589.276840,-76981.417968,-1838.629195
221.986212,6957.935855,-74908.841330,-6435.202183
221.988761,1924.535449,-80238.324113,-3217.601092
221.991309,3849.070898,-76093.170838,-7814.174080
221.993858,6217.729913,-74760.800142,-5669.106685
221.996407,-1924.535449,-79646.159359,-1838.629195
221.998955,2516.700203,-74612.758954,-1838.629195
222.001504,4145.153275,-74760.800142,-2145.067394
222.004052,-444.123565,-77573.582722,-1378.971896
222.006601,-7254.018232,-76833.376780,-1532.190996
222.009149,-1628.453072,-74612.758954,2145.067394
222.011698,-8438.347739,-78757.912229,8427.050478
222.014246,-2812.782580,-75945.129649,8733.488677
222.016795,-2220.617826,-73280.388258,4290.134789
222.019343,-10658.965565,-80090.282924,6435.202183
222.021892,-5477.523971,-74464.717765,-1072.533697
222.024440,-1924.535449,-77129.459156,1225.752797
222.026989,-4441.235652,-79053.994606,1838.629195
222.029537,4589.276840,-76685.335591,5056.230287
222.032086,-2516.700203,-76241.212026,5362.668486
222.034635,-4589.276840,-78905.953417,7814.174080
222.037183,6661.853478,-75501.006084,2604.724693
222.039737,-296.082377,-78757.912229,2451.505594
222.042291,-10955.047942,-80386.365301,6128.763984
222.044845,-6069.688724,-77573.582722,5669.106685
222.047399,-1628.453072,-78461.829852,7507.735880
222.049954,-4737.318029,-79053.994606,7660.954980
222.052508,-1184.329507,-73428.429446,1838.629195
222.055062,-888.247130,-76685.335591,2757.943793
222.057616,-4293.194464,-75501.006084,-1072.533697
222.060170,-3849.070898,-74612.758954,4136.915689
222.062724,1184.329507,-74760.800142,766.095498
222.065278,4293.194464,-77129.459156,3830.477490
222.067832,5477.523971,-71651.935186,-11184.994271
222.070386,-2072.576638,-76833.376780,-5515.887586
222.072940,888.247130,-77425.541533,-8733.488677
222.075495,5329.482782,-73872.553012,-9499.584175
222.078049,2960.823768,-76389.253214,-1378.971896
222.080603,444.123565,-76981.417968,-766.095498
222.083157,4589.276840,-75649.047272,-306.438199
222.085711,4737.318029,-77573.582722,-1378.971896
222.088265,6957.935855,-78313.788664,-766.095498
222.090819,4145.153275,-74316.676577,-8273.831378
222.093373,1480.411884,-81570.694808,-3064.381992
222.095927,148.041188,-76833.376780,3064.381992
222.098481,7402.059420,-72836.264693,-4136.915689
222.101036,4293.194464,-79350.076982,1378.971896
222.103590,2812.782580,-77573.582722,-4290.134789
222.106144,3849.070898,-74464.717765,-7048.078582
222.108698,3849.070898,-77721.623910,-8273.831378
222.111252,3404.947333,-75204.923707,-4443.353888
222.113806,7994.224174,-72984.305881,-7507.735880
222.116360,-1332.370696,-78017.706287,1378.971896
222.118914,2072.576638,-73872.553012,-2145.067394
222.121468,6365.771101,-75945.129649,-2757.943793
222.124022,-5477.523971,-78757.912229,-2451.505594
222.126576,-7846.182985,-77129.459156,4136.915689
222.129131,-444.123565,-73576.470635,2298.286494
222.131685,-1776.494261,-78757.912229,11797.870669
222.134239,-6661.853478,-75649.047272,6588.421283
222.136793,-3849.070898,-76093.170838,3677.258390
222.139347,-4293.194464,-77721.623910,1685.410096
222.141906,-2368.659014,-76537.294403,2298.286494
222.144465,1332.370696,-75204.923707,-1838.629195
222.147024,-296.082377,-78905.953417,5822.325785
222.149583,-9030.512492,-78165.747475,4290.134789
222.152142,-2072.576638,-72096.058751,2604.724693
222.154701,1480.411884,-77129.459156,2451.505594
222.157260,-740.205942,-79646.159359,3064.381992
222.159819,-6513.812290,-75501.006084,3370.820191
222.162378,-2072.576638,-77573.582722,7201.297681
222.164937,-7550.100608,-78905.953417,9346.365076
222.167496,-2960.823768,-74760.800142,5669.106685
222.170055,-3849.070898,-78461.829852,4443.353888
222.172614,-7105.977043,-78313.788664,4290.134789
222.175173,-2664.741391,-75501.006084,-1225.752797
222.177732,-6809.894666,-78905.953417,8120.612279
222.180291,2072.576638,-74760.800142,153.219100
222.182850,9030.512492,-75797.088461,153.219100
222.185409,2072.576638,-76093.170838,-8886.707777
222.187968,-2220.617826,-75945.129649,-6281.983084
222.190527,5181.441594,-75352.964896,-12717.185267
222.193086,12879.583391,-78017.706287,-2145.067394
222.195645,2220.617826,-76537.294403,-2298.286494
222.198204,4885.359217,-74020.594200,-1991.848295
222.200763,1480.411884,-78165.747475,-1378.971896
222.203322,1628.453072,-76537.294403,-1532.190996
222.205881,10955.047942,-76093.170838,-6128.763984
222.208440,-11843.295072,-75649.047272,-8120.612279
222.210999,-6513.812290,-76537.294403,-5515.887586
222.213558,-6809.894666,-70319.564490,-4443.353888
222.216117,2220.617826,-76833.376780,-3983.696590
222.218676,1628.453072,-77721.623910,-3064.381992
222.221235,5625.565159,-76685.335591,-4290.134789
222.223794,5477.523971,-77129.459156,-5822.325785
222.226353,1480.411884,-78609.871040,-6128.763984
222.228912,5625.565159,-75797.088461,-4136.915689
222.231471,2072.576638,-79794.200548,1378.971896
222.234030,10658.965565,-78313.788664,3217.601092
222.236589,8142.265362,-76241.212026,-3830.477490
222.239148,-6365.771101,-78905.953417,-306.438199
222.241707,-7698.141797,-74464.717765,-3370.820191
222.244270,-3849.070898,-74612.758954,3370.820191
222.246832,-3701.029710,-76685.335591,7660.954980
222.249395,-1480.411884,-74168.635388,6741.640382
222.251958,-6217.729913,-75204.923707,3064.381992
222.254520,-6217.729913,-76981.417968,2911.162892
222.257083,-2664.741391,-75352.964896,-2757.943793
222.259645,592.164754,-74760.800142,-612.876398
222.262208,-148.041188,-78757.912229,4136.915689
222.264770,-12879.583391,-75056.882519,3830.477490
222.267333,-1628.453072,-77425.541533,6894.859482
222.269895,-13175.665768,-77573.582722,3217.601092
222.272458,2220.617826,-78757.912229,1225.752797
222.275020,-3997.112087,-77277.500345,1838.629195
222.277583,-9770.718434,-77573.582722,4290.134789
222.280146,-592.164754,-75797.088461,6741.640382
222.282708,-2072.576638,-76537.294403,4903.011187
222.285271,-6217.729913,-79202.035794,7967.393179
222.287833,-1184.329507,-76833.376780,1532.190996
222.290396,-4145.153275,-75056.882519,612.876398
222.292958,-8438.347739,-77721.623910,4749.792088
222.295521,3404.947333,-75352.964896,2911.162892
222.298083,7846.182985,-75501.006084,-612.876398
222.300646,1776.494261,-78165.747475,-1991.848295
222.303208,1480.411884,-74316.676577,-11031.775171
222.305771,5033.400406,-76241.212026,-6281.983084
222.308334,8882.471304,-77129.459156,-6281.983084
222.310896,11843.295072,-74908.841330,-3370.820191
222.313459,1480.411884,-77129.459156,-919.314598
222.316021,1036.288319,-78461.829852,306.438199
222.318584,5477.523971,-75945.129649,-2145.067394
222.321146,13175.665768,-75945.129649,-5822.325785
222.323709,6069.688724,-77869.665098,-1225.752797
222.326271,14359.995275,-75649.047272,-4290.134789
222.328834,10362.883188,-75945.129649,153.219100
222.331396,2664.741391,-76833.376780,-919.314598
222.333959,5921.647536,-74908.841330,-5669.106685
222.336522,6661.853478,-75352.964896,-5515.887586
222.339084,5921.647536,-76389.253214,-7354.516781
222.341647,6069.688724,-74316.676577,-7660.954980
222.344209,1480.411884,-77129.459156,-4903.011187
222.346775,-1184.329507,-78017.706287,459.657299
222.349340,8882.471304,-73280.388258,-2911.162892
222.351906,5625.565159,-76981.417968,-2298.286494
222.354472,-8290.306550,-77425.541533,-2451.505594
222.357037,-5773.606348,-75649.047272,-766.095498
222.359603,-5773.606348,-77129.459156,6588.421283
222.362169,-3701.029710,-78165.747475,10572.117872
222.364734,296.082377,-74464.717765,6128.763984
222.367300,-6809.894666,-78165.747475,5515.887586
222.369866,-11103.089130,-77425.541533,3830.477490
222.372431,-1184.329507,-73576.470635,-5209.449386
222.374997,-3701.029710,-78905.953417,1378.971896
222.377563,-13027.624579,-76241.212026,766.095498
222.380128,1628.453072,-76537.294403,5362.668486
222.382694,-1332.370696,-75945.129649,5822.325785
222.385259,-9474.636058,-75501.006084,-1378.971896
222.387825,1628.453072,-75352.964896,-153.219100
222.390391,-8882.471304,-76093.170838,919.314598
222.392956,-6957.935855,-75649.047272,5362.668486
222.395522,444.123565,-77573.582722,6128.763984
222.398088,-6809.894666,-77573.582722,7660.954980
222.400653,-6217.729913,-77869.665098,6281.983084
222.403219,-592.164754,-77277.500345,919.314598
222.405785,-8438.347739,-78905.953417,3983.696590
222.408350,-4441.235652,-77869.665098,6435.202183
222.410916,8142.265362,-75501.006084,-1685.410096
222.413481,3849.070898,-78905.953417,1225.752797
222.416047,-296.082377,-75649.047272,-8120.612279
222.418613,1776.494261,-75649.047272,-7201.297681
222.421178,592.164754,-76389.253214,-9806.022374
222.423744,10658.965565,-76685.335591,-1685.410096
222.426310,6217.729913,-74168.635388,-8120.612279
222.428877,-2812.782580,-78017.706287,4136.915689
222.431445,6809.894666,-75056.882519,-5362.668486
222.434013,9770.718434,-77573.582722,-1072.533697
222.436580,-7846.182985,-75204.923707,-9346.365076
222.439148,-3552.988522,-75649.047272,-3370.820191
222.441715,4293.194464,-74168.635388,-6128.763984
222.444283,592.164754,-78461.829852,1532.190996
222.446851,-740.205942,-75352.964896,-5515.887586
222.449418,6809.894666,-78757.912229,-1838.629195
222.451986,2516.700203,-77277.500345,-5362.668486
222.454553,4737.318029,-78757.912229,-4903.011187
222.457121,6069.688724,-76093.170838,-7354.516781
222.459689,-2220.617826,-78165.747475,-766.095498
222.462256,2220.617826,-75501.006084,-2451.505594
222.464824,4293.194464,-75945.129649,-1685.410096
222.467392,-2960.823768,-76537.294403,-1838.629195
222.469959,-4885.359217,-76685.335591,-1685.410096
222.472527,-2664.741391,-75649.047272,2604.724693
222.475094,-6809.894666,-76981.417968,8273.831378
222.477662,-1776.494261,-76537.294403,9959.241474
222.480230,148.041188,-74168.635388,4443.353888
222.482797,-9326.594869,-78313.788664,5362.668486
222.485365,-740.205942,-75352.964896,-2298.286494
222.487932,-740.205942,-76537.294403,766.095498
222.490500,-2220.617826,-78165.747475,3677.258390
222.493068,-11843.295072,-74464.717765,306.438199
222.495635,-5625.565159,-76389.253214,5209.449386
222.498203,-1332.370696,-77869.665098,8273.831378
222.500771,-8142.265362,-74612.758954,-2298.286494
222.503338,-2812.782580,-77277.500345,3677.258390
222.505906,-7402.059420,-79942.241736,9039.926876
222.508473,-4441.235652,-79646.159359,8273.831378
222.511041,-2516.700203,-78165.747475,7354.516781
222.513609,-5329.482782,-78461.829852,7048.078582
222.516176,-888.247130,-76537.294403,0.000000
222.518744,-4293.194464,-76537.294403,1072.533697
222.521311,-7846.182985,-76981.417968,4749.792088
222.523879,5329.482782,-72688.223504,-766.095498
222.526447,5329.482782,-76833.376780,1378.971896
222.529014,3256.906145,-75797.088461,-6435.202183
222.531583,-740.205942,-74760.800142,-9806.022374
222.534153,0.000000,-74908.841330,-10725.336972
222.536722,4589.276840,-77869.665098,-4443.353888
222.539291,6217.729913,-74020.594200,-4290.134789
222.541860,1776.494261,-77277.500345,766.095498
222.544429,296.082377,-77573.582722,919.314598
222.546998,6809.894666,-75945.129649,-4596.572988
222.549567,6069.688724,-79794.200548,-3217.601092
222.552136,-888.247130,-75204.923707,-8733.488677
222.554705,6957.935855,-76685.335591,-2757.943793
222.557274,4885.359217,-74612.758954,-306.438199
222.559844,8438.347739,-78757.912229,-1532.190996
222.562413,8882.471304,-75352.964896,-7201.297681
222.564982,3108.864956,-75501.006084,-6435.202183
222.567551,592.164754,-79350.076982,-5362.668486
222.570120,5773.606348,-75056.882519,-6128.763984
222.572689,5181.441594,-76685.335591,-2604.724693
222.575258,-592.164754,-77573.582722,306.438199
222.577827,5625.565159,-74908.841330,-2145.067394
222.580396,-1184.329507,-75056.882519,-3677.258390
222.582965,-10658.965565,-78165.747475,1838.629195
222.585535,-4589.276840,-75204.923707,1378.971896
222.588104,-4293.194464,-78017.706287,9346.365076
222.590673,-4145.153275,-77869.665098,9039.926876
222.593242,-4441.235652,-74908.841330,3830.477490
222.595811,-1776.494261,-76833.376780,2757.943793
222.598380,-4441.235652,-77425.541533,-306.438199
222.600949,-2368.659014,-76093.170838,2451.505594
222.603518,-1332.370696,-75056.882519,-153.219100
222.606087,-14063.912898,-78757.912229,5975.544884
222.608656,-5773.606348,-74908.841330,1991.848295
222.611226,-9326.594869,-77425.541533,3983.696590
222.613795,-7402.059420,-80682.447678,5056.230287
222.616364,-444.123565,-75945.129649,3830.477490
222.618933,-5921.647536,-78757.912229,5669.106685
222.621502,-5921.647536,-79942.241736,9346.365076
222.624071,-444.123565,-76241.212026,5209.449386
222.626640,-444.123565,-78905.953417,4903.011187
222.629209,-8734.430116,-77573.582722,459.657299
222.631778,-3404.947333,-76389.253214,2451.505594
222.634349,148.041188,-74464.717765,1685.410096
222.636920,3404.947333,-76537.294403,2451.505594
222.639490,7105.977043,-73428.429446,-8427.050478
222.642061,-1184.329507,-76685.335591,-8580.269578
222.644631,-444.123565,-76833.376780,-7201.297681
222.647202,15396.283594,-74316.676577,-10725.336972
222.649773,2960.823768,-78757.912229,1225.752797
222.652343,2516.700203,-77869.665098,-1991.848295
222.654914,3256.906145,-76389.253214,306.438199
222.657484,1480.411884,-76537.294403,-3677.258390
222.660055,10510.924376,-79498.118171,-919.314598
222.662626,6957.935855,-74464.717765,-12257.527968
222.665196,-4737.318029,-80238.324113,-2145.067394
222.667767,3256.906145,-75649.047272,-1532.190996
222.670337,9030.512492,-72688.223504,-3064.381992
222.672908,6809.894666,-78017.706287,-2145.067394
222.675479,2664.741391,-73576.470635,-8427.050478
222.678049,3108.864956,-76389.253214,-6588.421283
222.680620,592.164754,-78017.706287,-6588.421283
222.683190,1924.535449,-76537.294403,-3983.696590
222.685761,1184.329507,-74316.676577,-4749.792088
222.688332,-2220.617826,-77573.582722,0.000000
222.690902,592.164754,-76537.294403,-1072.533697
222.693473,-1036.288319,-76981.417968,153.219100
222.696043,-7994.224174,-78905.953417,7201.297681
222.698614,-6365.771101,-76833.376780,7201.297681
222.701185,444.123565,-76389.253214,8120.612279
222.703755,-5921.647536,-77277.500345,7201.297681
222.706326,-4145.153275,-75352.964896,3370.820191
222.708897,-592.164754,-75056.882519,-2911.162892
222.711467,-5773.606348,-79053.994606,3983.696590
222.714038,3404.947333,-73872.553012,-919.314598
222.716608,444.123565,-76685.335591,4136.915689
222.719179,-6365.771101,-75501.006084,4290.134789
222.721750,7698.141797,-76685.335591,3677.258390
222.724320,-148.041188,-75797.088461,-1685.410096
222.726891,-9770.718434,-78313.788664,8427.050478
222.729461,-1332.370696,-76093.170838,3370.820191
222.732032,-1036.288319,-77277.500345,9806.022374
222.734603,-5625.565159,-76685.335591,5362.668486
222.737174,-1036.288319,-75649.047272,4596.572988
222.739745,2072.576638,-77277.500345,0.000000
222.742316,-8290.306550,-77869.665098,6281.983084
222.744888,2072.576638,-74020.594200,-766.095498
222.747459,3404.947333,-76537.294403,1991.848295
222.750030,4589.276840,-76833.376780,-4136.915689
222.752601,2072.576638,-76537.294403,-7201.297681
222.755172,4441.235652,-75204.923707,-11797.870669
222.757744,6809.894666,-77425.541533,-4290.134789
222.760315,7994.224174,-74316.676577,-7967.393179
222.762886,5181.441594,-77129.459156,1532.190996
222.765457,-888.247130,-75945.129649,-306.438199
222.768029,3849.070898,-75352.964896,-3217.601092
222.770600,13027.624579,-76537.294403,-2911.162892
222.773171,3404.947333,-78313.788664,-3217.601092
222.775742,7254.018232,-76685.335591,-4136.915689
222.778314,1332.370696,-76241.212026,-919.314598
222.780885,-148.041188,-77721.623910,-1838.629195
222.783456,4441.235652,-78165.747475,-3677.258390
222.786027,5329.482782,-75501.006084,-6741.640382
222.788598,0.000000,-78609.871040,-2911.162892
222.791170,7550.100608,-75945.129649,-8120.612279
222.793741,5033.400406,-75056.882519,-2298.286494
222.796312,740.205942,-76241.212026,-1685.410096
222.798883,6661.853478,-74316.676577,-5515.887586
222.801455,-1184.329507,-76241.212026,-2911.162892
222.804026,-9030.512492,-77277.500345,612.876398
222.806597,-2368.659014,-75204.923707,3524.039291
222.809168,-7254.018232,-76389.253214,10265.679673
222.811740,-5329.482782,-77129.459156,8886.707777
222.814311,-5033.400406,-74612.758954,3370.820191
222.816882,-6661.853478,-77277.500345,766.095498
222.819453,-9178.553681,-77869.665098,612.876398
222.822024,1924.535449,-74168.635388,-3064.381992
222.824596,5033.400406,-80238.324113,7048.078582
222.827167,-8290.306550,-77425.541533,6894.859482
222.829738,2812.782580,-76537.294403,6741.640382
222.832309,5329.482782,-78905.953417,3064.381992
222.834881,-10362.883188,-77425.541533,3677.258390
222.837452,-2812.782580,-72984.305881,-919.314598
222.839999,-3701.029710,-79498.118171,10112.460574
222.842542,-4293.194464,-77277.500345,5209.449386
222.845085,-4589.276840,-73724.511823,5209.449386
222.847627,-6365.771101,-76833.376780,1378.971896
222.850170,-7105.977043,-77721.623910,1532.190996
222.852713,-1924.535449,-74168.635388,1991.848295
222.855256,2812.782580,-76685.335591,1378.971896
222.857799,5921.647536,-77425.541533,1072.533697
222.860341,7550.100608,-74760.800142,-9346.365076
222.862884,-5625.565159,-80830.488866,-3830.477490
222.865427,3404.947333,-75945.129649,-8733.488677
222.867970,11991.336260,-76389.253214,-4903.011187
222.870512,6365.771101,-78017.706287,-3217.601092
222.873055,-4441.235652,-78165.747475,3064.381992
222.875598,5773.606348,-74316.676577,-4136.915689
222.878141,9326.594869,-80830.488866,1378.971896
222.880684,888.247130,-74464.717765,-6741.640382
222.883226,5329.482782,-76241.212026,-6588.421283
222.885769,-7846.182985,-79350.076982,-1685.410096
222.888312,-2960.823768,-72392.141128,-3370.820191
222.890855,13619.789333,-74464.717765,-5362.668486
222.893398,5181.441594,-77721.623910,-3370.820191
222.895940,3256.906145,-71799.976374,-9193.145976
222.898483,3256.906145,-79053.994606,-7967.393179
222.901026,148.041188,-78461.829852,-1532.190996
222.903569,3404.947333,-73280.388258,-3217.601092
222.906112,4737.318029,-76389.253214,-766.095498
222.908654,-2072.576638,-78609.871040,-1378.971896
222.911197,-5181.441594,-75945.129649,459.657299
222.913740,-3997.112087,-76685.335591,4290.134789
222.916283,-7105.977043,-80386.365301,11184.994271
222.918826,-2812.782580,-74168.635388,8273.831378
222.921368,-3256.906145,-76685.335591,3370.820191
222.923911,-8734.430116,-79646.159359,7967.393179
222.926454,-1924.535449,-73576.470635,-2451.505594
222.928997,-1776.494261,-79053.994606,612.876398
222.931539,-2072.576638,-77721.623910,3064.381992
222.934082,-8438.347739,-75204.923707,3830.477490
222.936625,-8734.430116,-76981.417968,5515.887586
222.939168,-13471.748144,-79053.994606,1991.848295
222.941717,-7846.182985,-76241.212026,1532.190996
222.944265,-1184.329507,-77277.500345,4136.915689
222.946814,-10955.047942,-79053.994606,8733.488677
222.949363,-3108.864956,-76093.170838,4290.134789
222.951912,-3849.070898,-78313.788664,5669.106685
222.954460,-7698.141797,-76537.294403,3983.696590
222.957009,-2516.700203,-76093.170838,-1378.971896
222.959558,-8734.430116,-78165.747475,7507.735880
222.962107,2368.659014,-76093.170838,1532.190996
222.964656,6809.894666,-75945.129649,-459.657299
222.967204,4885.359217,-75056.882519,-10418.898773
222.969753,-4589.276840,-78313.788664,-6435.202183
222.972302,4441.235652,-73724.511823,-12410.747068
222.974851,10362.883188,-77129.459156,-3524.039291
222.977399,2516.700203,-77277.500345,-1378.971896
222.979948,2516.700203,-75204.923707,306.438199
222.982497,-888.247130,-77869.665098,1532.190996
222.985046,-4441.235652,-78461.829852,-2757.943793
222.987594,4145.153275,-74168.635388,-10725.336972
222.990143,2072.576638,-78461.829852,-5056.230287
222.992692,-6661.853478,-76833.376780,0.000000
222.995241,7402.059420,-72096.058751,-4749.792088
222.997790,9622.677246,-74908.841330,-6588.421283
223.000338,2072.576638,-76685.335591,-5515.887586
223.002887,1776.494261,-75056.882519,-8580.269578
223.005436,11103.089130,-75945.129649,-7660.954980
223.007985,1924.535449,-78165.747475,-1378.971896
223.010533,8438.347739,-75056.882519,-1991.848295
223.013082,4589.276840,-77277.500345,-1225.752797
223.015631,-4293.194464,-78757.912229,306.438199
223.018180,-3256.906145,-74612.758954,153.219100
223.020728,-6217.729913,-77573.582722,4596.572988
223.023277,-7254.018232,-77869.665098,10418.898773
223.025826,-444.123565,-75056.882519,5975.544884
223.028375,-3701.029710,-74908.841330,3830.477490
223.030924,-2664.741391,-77277.500345,2604.724693
223.033472,1184.329507,-75204.923707,-2604.724693
223.036021,-2812.782580,-76833.376780,766.095498
223.038570,-2220.617826,-75649.047272,4903.011187
223.041119,296.082377,-76833.376780,5056.230287
223.043673,-11991.336260,-76981.417968,3064.381992
223.046227,-2516.700203,-79350.076982,2757.943793
223.048781,-4293.194464,-75056.882519,1991.848295
223.051335,-3256.906145,-75352.964896,2911.162892
223.053889,-3849.070898,-78461.829852,8733.488677
223.056443,-592.164754,-75204.923707,2451.505594
223.058997,-2220.617826,-75501.006084,4903.011187
223.061551,-9326.594869,-78313.788664,1532.190996
223.064105,-3849.070898,-75649.047272,3677.258390
223.066659,2072.576638,-75204.923707,153.219100
223.069213,2812.782580,-79498.118171,4749.792088
223.071768,7698.141797,-72688.223504,-10725.336972
223.074322,-148.041188,-77721.623910,-6128.763984
223.076876,-148.041188,-76685.335591,-9959.241474
223.079430,13027.624579,-75056.882519,-9499.584175
223.081984,-444.123565,-76981.417968,-2145.067394
223.084538,1480.411884,-76241.212026,-612.876398
223.087092,6365.771101,-74464.717765,-3370.820191
223.089646,-1480.411884,-75945.129649,-3677.258390
223.092200,6217.729913,-77869.665098,-4443.353888
223.094754,5033.400406,-72688.223504,-9039.926876
223.097308,8882.471304,-78609.871040,-2298.286494
223.099862,1924.535449,-72540.182316,-3524.039291
223.102416,8142.265362,-74168.635388,-6588.421283
223.104971,1184.329507,-78757.912229,-2911.162892
223.107525,2072.576638,-74464.717765,-6741.640382
223.110079,5181.441594,-75649.047272,-6281.983084
223.112633,1036.288319,-79942.241736,-3830.477490
223.115187,1776.494261,-75649.047272,-1225.752797
223.117741,6069.688724,-76537.294403,-2604.724693
223.120295,296.082377,-79202.035794,1378.971896
223.122849,-5921.647536,-78165.747475,1685.410096
223.125403,-3404.947333,-75945.129649,5362.668486
223.127957,-7698.141797,-78609.871040,10725.336972
223.130511,-3108.864956,-76981.417968,9959.241474
223.133065,-2516.700203,-75501.006084,3983.696590
223.135619,-15396.283594,-77573.582722,2911.162892
223.138174,-3701.029710,-75056.882519,-1685.410096
223.140728,-1924.535449,-74464.717765,-3830.477490
223.143282,-2368.659014,-78313.788664,5056.230287
223.145811,-4885.359217,-75945.129649,4903.011187
223.148340,6809.894666,-74316.676577,2911.162892
223.150870,-10214.842000,-78313.788664,2298.286494
223.153399,-5329.482782,-79053.994606,4290.134789
223.155928,-2516.700203,-74908.841330,3217.601092
223.158458,-2960.823768,-80682.447678,11951.089769
223.160987,2664.741391,-75945.129649,5822.325785
223.163516,-2516.700203,-74316.676577,4443.353888
223.166045,-5773.606348,-76685.335591,1838.629195
223.168575,-3108.864956,-76389.253214,766.095498
223.171104,-1480.411884,-73872.553012,1072.533697
223.173633,296.082377,-76389.253214,612.876398
223.176163,6809.894666,-74612.758954,-6435.202183
223.178692,3108.864956,-75797.088461,-9499.584175
223.181221,-1036.288319,-78609.871040,-5362.668486
223.183751,4737.318029,-73576.470635,-9806.022374
223.186280,7994.224174,-75945.129649,-2298.286494
223.188809,740.205942,-77869.665098,-612.876398
223.191339,2368.659014,-75352.964896,-612.876398
223.193868,6069.688724,-77277.500345,-2298.286494
223.196397,2220.617826,-77721.623910,-766.095498
223.198926,9770.718434,-76389.253214,-6894.859482
223.201456,-4441.235652,-76537.294403,-4290.134789
223.203985,888.247130,-78165.747475,-306.438199
223.206514,4885.359217,-71948.017562,-8886.707777
223.209044,4737.318029,-76389.253214,-5515.887586
223.211573,148.041188,-76537.294403,-7048.078582
223.214102,6365.771101,-76093.170838,-7354.516781
223.216632,2812.782580,-76537.294403,-4903.011187
223.219161,3404.947333,-77425.541533,-153.219100
223.221690,6661.853478,-72244.099939,-7048.078582
223.224220,-148.041188,-77721.623910,-766.095498
223.226749,-10362.883188,-77277.500345,-306.438199
223.229278,-4293.194464,-74908.841330,4903.011187
223.231807,-6217.729913,-77573.582722,9499.584175
223.234337,-5181.441594,-77721.623910,11031.775171
223.236866,-740.205942,-74908.841330,3064.381992
223.239395,-9770.718434,-79646.159359,5822.325785
223.241925,-9770.718434,-78017.706287,306.438199
223.244454,-3701.029710,-74908.841330,-1378.971896
223.246993,10658.965565,-79053.994606,5056.230287
223.249531,-5033.400406,-78313.788664,7507.735880
223.252069,0.000000,-76093.170838,6281.983084
223.254608,-2220.617826,-76685.335591,1532.190996
223.257146,-3997.112087,-79498.118171,4290.134789
223.259685,-3404.947333,-70171.523302,306.438199
223.262223,-7550.100608,-76833.376780,5822.325785
223.264762,-4737.318029,-75501.006084,5209.449386
223.267300,444.123565,-73872.553012,1225.752797
223.269839,-11991.336260,-75945.129649,1378.971896
223.272377,-8290.306550,-77277.500345,4136.915689
223.274916,5477.523971,-73428.429446,459.657299
223.277454,7402.059420,-77721.623910,1532.190996
223.279993,2812.782580,-78165.747475,-6435.202183
223.282531,2368.659014,-76093.170838,-10112.460574
223.285070,3701.029710,-79646.159359,-7048.078582
223.287608,5477.523971,-76537.294403,-4290.134789
223.290147,12435.459826,-74908.841330,-5362.668486
223.292685,2220.617826,-78905.953417,3370.820191
223.295224,6217.729913,-74908.841330,-1685.410096
223.297762,5773.606348,-74612.758954,-3217.601092
223.300301,-3552.988522,-76389.253214,-6741.640382
223.302839,-1184.329507,-76833.376780,-7660.954980
223.305378,2516.700203,-73428.429446,-4596.572988
223.307916,2516.700203,-73428.429446,-6588.421283
223.310454,2812.782580,-74168.635388,-7354.516781
223.312993,7105.977043,-71948.017562,-11031.775171
223.315531,592.164754,-78757.912229,-3370.820191
223.318070,2664.741391,-77425.541533,-3524.039291
223.320608,5477.523971,-77277.500345,-2604.724693
223.323147,2664.741391,-79794.200548,1532.190996
223.325685,2664.741391,-76833.376780,-4136.915689
223.328224,-2960.823768,-79646.159359,0.000000
223.330762,-8586.388927,-80238.324113,8580.269578
223.333301,-4737.318029,-77869.665098,9806.022374
223.335839,1628.453072,-76389.253214,9806.022374
223.338378,-4145.153275,-78461.829852,8580.269578
223.340916,-6957.935855,-76093.170838,2757.943793
223.343455,0.000000,-75352.964896,-919.314598
223.345993,-2368.659014,-77573.582722,-1532.190996
223.348511,7402.059420,-75649.047272,612.876398
223.351028,-3552.988522,-74612.758954,2604.724693
223.353545,-4589.276840,-79053.994606,9346.365076
223.356063,4737.318029,-72096.058751,1072.533697
223.358580,4145.153275,-79794.200548,4136.915689
223.361097,-9474.636058,-76685.335591,5209.449386
223.363615,-5477.523971,-74464.717765,4596.572988
223.366132,-296.082377,-77129.459156,7507.735880
223.368649,-3701.029710,-77721.623910,6894.859482
223.371167,-444.123565,-74464.717765,766.095498
223.373684,-3701.029710,-79498.118171,5975.544884
223.376201,-1924.535449,-76537.294403,2298.286494
223.378719,10362.883188,-74760.800142,0.000000
223.381236,5625.565159,-76389.253214,-7660.954980
223.383753,-3108.864956,-77869.665098,-8886.707777
223.386271,1480.411884,-74316.676577,-11338.213370
223.388788,7994.224174,-77277.500345,-5975.544884
223.391305,5921.647536,-77869.665098,-2451.505594
223.393823,4885.359217,-75352.964896,-1532.190996
223.396340,2072.576638,-75797.088461,-766.095498
223.398858,-8882.471304,-76833.376780,-2911.162892
223.401375,888.247130,-77129.459156,-6588.421283
223.403892,14063.912898,-73576.470635,-6435.202183
223.406410,-3701.029710,-79053.994606,-1532.190996
223.408927,6069.688724,-75056.882519,-3370.820191
223.411444,6513.812290,-77721.623910,-2911.162892
223.413962,-296.082377,-78905.953417,-3983.696590
223.416479,4589.276840,-75204.923707,-8120.612279
223.418996,2812.782580,-77129.459156,-4903.011187
223.421514,740.205942,-76981.417968,-3064.381992
223.424031,1036.288319,-75945.129649,-1838.629195
223.426548,6365.771101,-75649.047272,-6281.983084
223.429066,-8586.388927,-79498.118171,3830.477490
223.431583,-5773.606348,-75649.047272,4749.792088
223.434100,-2220.617826,-76093.170838,8733.488677
223.436618,-6069.688724,-79498.118171,12410.747068
223.439135,-4145.153275,-74316.676577,3217.601092
223.441652,-6365.771101,-76833.376780,4290.134789
223.444170,-4441.235652,-77721.623910,-1225.752797
223.446687,2072.576638,-75352.964896,-612.876398
223.449217,-6809.894666,-76389.253214,-459.657299
223.451746,-6513.812290,-77129.459156,4903.011187
223.454275,296.082377,-75352.964896,6128.763984
223.456805,3256.906145,-75056.882519,306.438199
223.459334,-7846.182985,-79646.159359,9039.926876
223.461864,-3404.947333,-72984.305881,2451.505594
223.464393,-3701.029710,-76537.294403,6128.763984
223.466922,-5921.647536,-78461.829852,6741.640382
223.469452,-4293.194464,-72836.264693,-919.314598
223.471981,-9178.553681,-78165.747475,3217.601092
223.474511,-9622.677246,-77721.623910,3370.820191
223.477040,7254.018232,-74168.635388,3677.258390
223.479569,7846.182985,-77425.541533,612.876398
223.482099,4589.276840,-78905.953417,-4290.134789
223.484628,740.205942,-76093.170838,-12410.747068
223.487158,2812.782580,-77573.582722,-6894.859482
223.489687,6365.771101,-78313.788664,-4596.572988
223.492216,6661.853478,-76093.170838,-766.095498
223.494746,2220.617826,-77573.582722,459.657299
223.497275,-592.164754,-78757.912229,1838.629195
223.499805,8438.347739,-72688.223504,-5822.325785
223.502334,4145.153275,-78905.953417,-6894.859482
223.504863,-444.123565,-77869.665098,-2298.286494
223.507393,6069.688724,-71503.893997,-6588.421283
223.509922,7846.182985,-78017.706287,-1072.533697
223.512452,4885.359217,-75501.006084,-4290.134789
223.514981,4441.235652,-73872.553012,-9652.803275
223.517510,6513.812290,-77425.541533,-6128.763984
223.520040,3552.988522,-77425.541533,-3524.039291
223.522569,11399.171507,-74316.676577,-2911.162892
223.525099,3701.029710,-76981.417968,-2145.067394
223.527628,-4589.276840,-76389.253214,-2451.505594
223.530157,-4293.194464,-75056.882519,-766.095498
223.532687,-8586.388927,-77573.582722,7967.393179
223.535216,-3256.906145,-76537.294403,10725.336972
223.537746,1776.494261,-75945.129649,7507.735880
223.540275,-8882.471304,-79202.035794,7507.735880
223.542804,-4293.194464,-76389.253214,1685.410096
223.545334,-6365.771101,-74168.635388,-1838.629195
223.547863,-4737.318029,-77869.665098,1225.752797
223.550374,-4293.194464,-77277.500345,5975.544884
223.552884,1332.370696,-76537.294403,6435.202183
223.555395,-296.082377,-77277.500345,5669.106685
223.557906,-5477.523971,-78757.912229,766.095498
223.560416,-7254.018232,-74464.717765,5362.668486
223.562927,-6957.935855,-76389.253214,5822.325785
223.565437,-4145.153275,-78165.747475,8580.269578
223.567948,296.082377,-74760.800142,2604.724693
223.570458,-9622.677246,-75945.129649,2451.505594
223.572969,-10510.924376,-77425.541533,4749.792088
223.575480,5625.565159,-72688.223504,-1991.848295
223.577990,4737.318029,-78609.871040,3217.601092
223.580501,6069.688724,-75797.088461,-9039.926876
223.583011,592.164754,-76241.212026,-8886.707777
223.585522,-1036.288319,-78461.829852,-8427.050478
223.588033,9918.759623,-76241.212026,-4136.915689
223.590543,12139.377449,-74760.800142,-4136.915689
223.593054,-592.164754,-78609.871040,2604.724693
223.595564,-740.205942,-73724.511823,-3983.696590
223.598075,7550.100608,-75797.088461,-2911.162892
223.600585,-444.123565,-78017.706287,-3983.696590
223.603096,5921.647536,-75204.923707,-7201.297681
223.605607,6513.812290,-77129.459156,-3983.696590
223.608117,-1332.370696,-76537.294403,-4443.353888
223.610628,4885.359217,-78165.747475,-1991.848295
223.613138,7698.141797,-75649.047272,-6741.640382
223.615649,1480.411884,-79646.159359,-2604.724693
223.618160,4589.276840,-75649.047272,-4443.353888
223.620670,7846.182985,-76389.253214,-3370.820191
223.623181,2220.617826,-77869.665098,-1072.533697
223.625691,4737.318029,-74020.594200,-5362.668486
223.628202,-4737.318029,-76537.294403,-919.314598
223.630712,-8438.347739,-76389.253214,6435.202183
223.633223,-2516.700203,-76685.335591,12717.185267
223.635734,1480.411884,-73872.553012,5669.106685
223.638244,-9030.512492,-78461.829852,8733.488677
223.640755,-6513.812290,-75352.964896,0.000000
223.643265,1628.453072,-77721.623910,-766.095498
223.645776,2220.617826,-78017.706287,3370.820191
223.648287,10510.924376,-75056.882519,3677.258390
223.650811,-7550.100608,-77129.459156,3983.696590
223.653336,-14508.036463,-78017.706287,5822.325785
223.655860,-1480.411884,-73724.511823,306.438199
223.658385,-6217.729913,-76685.335591,5362.668486
223.660910,-8586.388927,-74168.635388,5822.325785
223.663434,-1480.411884,-75501.006084,3370.820191
223.665959,-740.205942,-74760.800142,1378.971896
223.668484,-10362.883188,-77425.541533,2604.724693
223.671008,-3849.070898,-75945.129649,3370.820191
223.673533,1332.370696,-76537.294403,1685.410096
223.676058,4589.276840,-78461.829852,4290.134789
223.678582,7994.224174,-74760.800142,-8273.831378
223.681107,1184.329507,-79053.994606,-7354.516781
223.683631,-2812.782580,-76833.376780,-10418.898773
223.686156,6957.935855,-74760.800142,-8427.050478
223.688681,2072.576638,-75352.964896,-6281.983084
223.691205,-2368.659014,-77869.665098,2298.286494
223.693730,5181.441594,-72984.305881,-5362.668486
223.696255,13027.624579,-76685.335591,-153.219100
223.698779,5921.647536,-75649.047272,-9499.584175
223.701304,2960.823768,-76389.253214,-5515.887586
223.703828,3552.988522,-74908.841330,-5822.325785
223.706353,6809.894666,-77129.459156,-306.438199
223.708878,6365.771101,-74760.800142,-9499.584175
223.711402,592.164754,-77869.665098,-3677.258390
223.713927,1480.411884,-75649.047272,-7967.393179
223.716452,5477.523971,-77277.500345,-3830.477490
223.718976,5625.565159,-77869.665098,-2911.162892
223.721501,1332.370696,-75352.964896,-612.876398
223.724025,3256.906145,-74612.758954,-7660.954980
223.726550,-11547.212695,-78609.871040,7507.735880
223.729075,-8438.347739,-73724.511823,3983.696590
223.731599,-1184.329507,-77277.500345,12410.747068
223.734124,-3404.947333,-75797.088461,5669.106685
223.736649,-9326.594869,-77721.623910,8427.050478
223.739173,-7698.141797,-74464.717765,-3983.696590
223.741698,-6069.688724,-78017.706287,2451.505594
223.744222,-2664.741391,-76685.335591,-1225.752797
223.746747,-1332.370696,-74908.841330,1225.752797
223.749272,-3404.947333,-79053.994606,9346.365076
223.751779,-2516.700203,-74612.758954,2298.286494
223.754287,-5181.441594,-76685.335591,766.095498
223.756795,-6957.935855,-77129.459156,9806.022374
223.759302,-5181.441594,-75797.088461,5362.668486
223.761810,2220.617826,-78609.871040,7507.735880
223.764317,-6217.729913,-74760.800142,2604.724693
223.766825,-9178.553681,-77129.459156,2911.162892
223.769333,-3701.029710,-76981.417968,-153.219100
223.771840,148.041188,-77573.582722,3524.039291
223.774348,6957.935855,-74464.717765,-2298.286494
223.776856,6661.853478,-76537.294403,-9806.022374
223.779363,-3997.112087,-79053.994606,-6128.763984
223.781871,5921.647536,-74908.841330,-11797.870669
223.784378,10066.800811,-77425.541533,-1532.190996
223.786886,4737.318029,-77425.541533,-1991.848295
223.789394,-1184.329507,-78165.747475,2911.162892
223.791901,6069.688724,-75797.088461,-4443.353888
223.794409,7402.059420,-77869.665098,3064.381992
223.796916,9474.636058,-75797.088461,-9039.926876
223.799424,12731.542202,-75352.964896,-5975.544884
223.801932,2368.659014,-76093.170838,-2298.286494
223.804439,5773.606348,-72096.058751,-10725.336972
223.806947,9474.636058,-75649.047272,-4596.572988
223.809455,2812.782580,-75056.882519,-6588.421283
223.811962,740.205942,-75204.923707,-5515.887586
223.814470,2516.700203,-73428.429446,-8580.269578
223.816977,1036.288319,-75501.006084,-919.314598
223.819485,1480.411884,-73872.553012,-6741.640382
223.821993,-6069.688724,-76537.294403,459.657299
223.824500,-8882.471304,-75352.964896,5056.230287
223.827008,-8882.471304,-77129.459156,13330.061665
223.829516,2960.823768,-76685.335591,10112.460574
223.832023,-5477.523971,-77129.459156,8427.050478
223.834531,-7402.059420,-78461.829852,4903.011187
223.837038,-13323.706956,-75797.088461,-5669.106685
223.839546,2960.823768,-80386.365301,7201.297681
223.842054,7550.100608,-73428.429446,-3217.601092
223.844561,-9622.677246,-78757.912229,7201.297681
223.847069,-3108.864956,-76685.335591,6588.421283
223.849576,-4145.153275,-80534.406490,6435.202183
223.852104,296.082377,-75352.964896,4749.792088
223.854627,-6661.853478,-74168.635388,6435.202183
223.857150,-2516.700203,-77573.582722,5209.449386
223.859673,0.000000,-74316.676577,459.657299
223.862195,-10066.800811,-76389.253214,4290.134789
223.864718,-4293.194464,-76833.376780,3217.601092
223.867241,3256.906145,-76093.170838,919.314598
223.869764,4145.153275,-76389.253214,919.314598
223.872287,6957.935855,-75649.047272,-9499.584175
223.874810,2960.823768,-75501.006084,-12410.747068
223.877333,1184.329507,-76981.417968,-7660.954980
223.879856,8142.265362,-78461.829852,-2757.943793
223.882379,9326.594869,-74760.800142,-4290.134789
223.884902,-296.082377,-78905.953417,5515.887586
223.887425,-888.247130,-75797.088461,-4596.572988
223.889948,6957.935855,-76389.253214,-3830.477490
223.892471,-3404.947333,-75352.964896,-8886.707777
223.894994,-5329.482782,-75649.047272,-7354.516781
223.897517,6365.771101,-74760.800142,-4596.572988
223.900040,4145.153275,-78609.871040,-1532.190996
223.902563,6069.688724,-76537.294403,-8580.269578
223.905086,296.082377,-76537.294403,-4749.792088
223.907609,592.164754,-78757.912229,-2451.505594
223.910131,296.082377,-76389.253214,-5056.230287
223.912654,3701.029710,-74464.717765,-2298.286494
223.915177,-1776.494261,-78313.788664,-1991.848295
223.917700,-6661.853478,-78017.706287,919.314598
223.920223,-5329.482782,-75797.088461,4290.134789
223.922746,-9178.553681,-78757.912229,13789.718964
223.925269,1036.288319,-74760.800142,6894.859482
223.927792,-1332.370696,-76833.376780,7967.393179
223.930315,-7846.182985,-78461.829852,3370.820191
223.932850,-5033.400406,-74464.717765,-3064.381992
223.935386,4441.235652,-75797.088461,919.314598
223.937921,-7550.100608,-76093.170838,0.000000
223.940456,592.164754,-77277.500345,7048.078582
223.942992,-10955.047942,-71799.976374,-612.876398
223.945527,-10955.047942,-79942.241736,5669.106685
223.948062,-1184.329507,-74168.635388,4443.353888
223.950598,-5477.523971,-74168.635388,8427.050478
223.953133,-5181.441594,-80090.282924,8120.612279
223.955668,-444.123565,-75945.129649,2911.162892
223.958203,-8142.265362,-75352.964896,1838.629195
223.960739,-5329.482782,-79202.035794,5822.325785
223.963274,8290.306550,-74760.800142,-1685.410096
223.965809,5477.523971,-77425.541533,1072.533697
223.968345,-1036.288319,-78165.747475,-10418.898773
223.970880,592.164754,-76093.170838,-9652.803275
223.973415,4885.359217,-75501.006084,-9806.022374
223.975951,1628.453072,-78313.788664,-1685.410096
223.978486,6069.688724,-74020.594200,-4903.011187
223.981021,740.205942,-77869.665098,2451.505594
223.983557,7698.141797,-78313.788664,459.657299
223.986092,4441.235652,-75501.006084,-4290.134789
223.988627,4441.235652,-79646.159359,-4443.353888
223.991163,5625.565159,-76389.253214,-3677.258390
223.993698,8142.265362,-75501.006084,-6435.202183
223.996233,5033.400406,-79202.035794,-2145.067394
223.998768,1776.494261,-78313.788664,-4749.792088
224.001304,8882.471304,-73872.553012,-7048.078582
224.003839,1924.535449,-78313.788664,-2451.505594
224.006374,8734.430116,-76389.253214,-1532.190996
224.008910,7698.141797,-72688.223504,-4903.011187
224.011445,-4293.194464,-77573.582722,-3677.258390
224.013980,-11399.171507,-76389.253214,1685.410096
224.016516,-4589.276840,-74612.758954,4443.353888
224.019051,-8586.388927,-78905.953417,13942.938064
224.021586,-1924.535449,-75797.088461,10572.117872
224.024122,-3552.988522,-75945.129649,5822.325785
224.026657,-12139.377449,-79942.241736,5056.230287
224.029192,-5181.441594,-78313.788664,153.219100
224.031727,2072.576638,-75945.129649,-306.438199
224.034245,1332.370696,-77129.459156,612.876398
224.036762,-1332.370696,-76389.253214,9039.926876
224.039279,-1924.535449,-74316.676577,2757.943793
224.041796,-4737.318029,-78461.829852,7048.078582
224.044314,-2812.782580,-78017.706287,9193.145976
224.046831,-2812.782580,-73872.553012,4290.134789
224.049348,-5181.441594,-79498.118171,8273.831378
224.051866,-3256.906145,-75797.088461,-153.219100
224.054383,-4145.153275,-76389.253214,4443.353888
224.056900,-1924.535449,-78461.829852,2451.505594
224.059417,6513.812290,-78905.953417,6128.763984
224.061935,11251.130318,-72540.182316,-10878.556072
224.064452,-444.123565,-79794.200548,-5822.325785
224.066969,1628.453072,-75797.088461,-13176.842566
224.069486,7105.977043,-75056.882519,-9193.145976
224.072004,6661.853478,-76537.294403,-3677.258390
224.074521,3256.906145,-76537.294403,-766.095498
224.077038,2072.576638,-74020.594200,-766.095498
224.079555,2368.659014,-75945.129649,-1378.971896
224.082073,6069.688724,-77721.623910,-5362.668486
224.084590,5625.565159,-75797.088461,-4749.792088
224.087107,148.041188,-78017.706287,-1991.848295
224.089624,6809.894666,-75204.923707,-4749.792088
224.092142,7105.977043,-75945.129649,-7507.735880
224.094659,-1628.453072,-79350.076982,-3370.820191
224.097176,1924.535449,-76093.170838,-6894.859482
224.099693,4145.153275,-75056.882519,-5669.106685
224.102211,740.205942,-76981.417968,153.219100
224.104728,5477.523971,-74908.841330,-5822.325785
224.107245,-5033.400406,-77869.665098,612.876398
224.109762,-11251.130318,-78313.788664,8120.612279
224.112280,-2664.741391,-75204.923707,6128.763984
224.114797,-1776.494261,-78757.912229,15475.129060
224.117314,-5181.441594,-77573.582722,8120.612279
224.119831,-7846.182985,-77277.500345,2451.505594
224.122349,-5181.441594,-76685.335591,-2604.724693
224.124866,-4293.194464,-78461.829852,3064.381992
224.127383,4145.153275,-74760.800142,-1072.533697
224.129900,2960.823768,-76389.253214,5669.106685
224.132418,-10214.842000,-75204.923707,2451.505594
224.134921,-3849.070898,-75204.923707,1225.752797
224.137424,-6365.771101,-76981.417968,6741.640382
224.139928,-5625.565159,-75649.047272,7660.954980
224.142431,0.000000,-75501.006084,5822.325785
224.144934,-5033.400406,-77869.665098,4749.792088
224.147438,-12731.542202,-77573.582722,4290.134789
224.149941,2812.782580,-75501.006084,-612.876398
224.152444,8438.347739,-77277.500345,2604.724693
224.154948,5477.523971,-76093.170838,-5975.544884
224.157451,3997.112087,-76241.212026,-9346.365076
224.159955,4145.153275,-76981.417968,-10112.460574
224.162458,1924.535449,-77869.665098,-5362.668486
224.164961,9326.594869,-73724.511823,-7048.078582
224.167465,3256.906145,-77425.541533,-153.219100
224.169968,1036.288319,-76685.335591,766.095498
224.172471,-1184.329507,-75204.923707,-4443.353888
224.174975,296.082377,-77277.500345,-3370.820191
224.177478,-6661.853478,-78017.706287,-6128.763984
224.179981,3108.864956,-72392.141128,-8273.831378
224.182485,6809.894666,-75797.088461,-5975.544884
224.184988,1184.329507,-76685.335591,-5975.544884
224.187491,6365.771101,-74760.800142,-8886.707777
224.189995,-1776.494261,-78017.706287,-3677.258390
224.192498,1480.411884,-79053.994606,-1225.752797
224.195001,7105.977043,-74612.758954,-3983.696590
224.197505,1184.329507,-78313.788664,0.000000
224.200008,-6513.812290,-77721.623910,-919.314598
224.202511,-6809.894666,-75797.088461,5209.449386
224.205015,-4737.318029,-77721.623910,9652.803275
224.207518,1036.288319,-75649.047272,13330.061665
224.210021,-444.123565,-73576.470635,2604.724693
224.212525,-10066.800811,-78313.788664,5515.887586
224.215028,-8882.471304,-76833.376780,-1838.629195
224.217531,-4737.318029,-74316.676577,-2604.724693
224.220035,6809.894666,-74760.800142,766.095498
224.222538,592.164754,-78461.829852,8733.488677
224.225041,-6661.853478,-71799.976374,-1532.190996
224.227545,-6069.688724,-77869.665098,5209.449386
224.230048,-8586.388927,-76981.417968,7814.174080
224.232552,-1628.453072,-72244.099939,5209.449386
224.235044,-2664.741391,-79053.994606,7507.735880
224.237537,-8586.388927,-77277.500345,2298.286494
224.240029,-6069.688724,-76389.253214,3064.381992
224.242522,2812.782580,-76241.212026,-1685.410096
224.245015,6957.935855,-79202.035794,4903.011187
224.247507,10955.047942,-73132.347070,-11644.651570
224.250000,-1036.288319,-80238.324113,-5362.668486
224.252492,-1924.535449,-77869.665098,-9806.022374
224.254985,9918.759623,-75649.047272,-5209.449386
224.257478,9178.553681,-77129.459156,-1532.190996
224.259970,3701.029710,-77721.623910,-919.314598
224.262463,-1480.411884,-72984.305881,-3370.820191
224.264955,-5477.523971,-77425.541533,-6281.983084
224.267448,-1332.370696,-75649.047272,-3217.601092
224.269941,4441.235652,-72836.264693,-9193.145976
224.272433,7994.224174,-74316.676577,-7660.954980
224.274926,4885.359217,-77129.459156,-7201.297681
224.277418,7994.224174,-74316.676577,-6894.859482
224.279911,2516.700203,-78609.871040,-4749.792088
224.282404,-444.123565,-79350.076982,0.000000
224.284896,12731.542202,-75649.047272,-2911.162892
224.287389,3997.112087,-79942.241736,919.314598
224.289881,-8142.265362,-76389.253214,-3983.696590
224.292374,-5921.647536,-76537.294403,1225.752797
224.294867,-9474.636058,-76389.253214,4596.572988
224.297359,-3256.906145,-75352.964896,11184.994271
224.299852,1480.411884,-73132.347070,3677.258390
224.302344,-5625.565159,-77129.459156,7814.174080
224.304837,-9918.759623,-76389.253214,459.657299
224.307329,-4441.235652,-74020.594200,-3830.477490
224.309822,-5329.482782,-78461.829852,1991.848295
224.312315,-3701.029710,-74316.676577,1225.752797
224.314807,3404.947333,-75945.129649,3830.477490
224.317300,-10955.047942,-77425.541533,5209.449386
224.319792,-7550.100608,-78313.788664,9959.241474
224.322285,-888.247130,-76241.212026,8273.831378
224.324778,-3997.112087,-78165.747475,10265.679673
224.327270,-3849.070898,-75649.047272,3830.477490
224.329763,-6513.812290,-77573.582722,2604.724693
224.332255,-4885.359217,-77721.623910,1685.410096
224.334769,4145.153275,-76537.294403,919.314598
224.337282,10955.047942,-73724.511823,-7660.954980
224.339795,-740.205942,-78757.912229,-7354.516781
224.342308,-1924.535449,-76389.253214,-10418.898773
224.344821,6957.935855,-75797.088461,-7660.954980
224.347334,7846.182985,-78313.788664,-459.657299
224.349847,8586.388927,-75797.088461,-2757.943793
224.352361,2368.659014,-77721.623910,-459.657299
224.354874,-5773.606348,-78609.871040,-459.657299
224.357387,3108.864956,-73872.553012,-5056.230287
224.359900,-2664.741391,-75204.923707,-8273.831378
224.362413,444.123565,-78165.747475,-3217.601092
224.364926,1332.370696,-73576.470635,-8886.707777
224.367439,6809.894666,-75649.047272,-7967.393179
224.369953,3849.070898,-76833.376780,-6435.202183
224.372466,1628.453072,-75352.964896,-5975.544884
224.374979,2072.576638,-76537.294403,-5362.668486
224.377492,3552.988522,-76537.294403,-766.095498
224.380005,7105.977043,-75501.006084,-3370.820191
224.382518,-4589.276840,-77129.459156,-306.438199
224.385031,-11991.336260,-78905.953417,7967.393179
224.387545,-2516.700203,-74760.800142,6588.421283
224.390058,888.247130,-77573.582722,13789.718964
224.392571,-7698.141797,-76093.170838,6435.202183
224.395084,-9178.553681,-76537.294403,1225.752797
224.397597,-5625.565159,-76389.253214,-2451.505594
224.400110,3256.906145,-79794.200548,3983.696590
224.402623,5773.606348,-74908.841330,-612.876398
224.405137,2516.700203,-77573.582722,6741.640382
224.407650,-8882.471304,-76389.253214,3983.696590
224.410163,-1184.329507,-76241.212026,5822.325785
224.412676,-2960.823768,-75945.129649,7354.516781
224.415189,-5033.400406,-76981.417968,10112.460574
224.417702,148.041188,-73280.388258,2451.505594
224.420215,-6957.935855,-74908.841330,-1378.971896
224.422729,-9326.594869,-77721.623910,6128.763984
224.425242,5773.606348,-73872.553012,-4596.572988
224.427755,7105.977043,-77277.500345,1378.971896
224.430268,2516.700203,-76981.417968,-10725.336972
224.432781,1628.453072,-78461.829852,-6128.763984
224.435283,4885.359217,-77129.459156,-10878.556072
224.437784,2960.823768,-79942.241736,766.095498
224.440286,10214.842000,-74316.676577,-7660.954980
224.442788,4145.153275,-78313.788664,2911.162892
224.445289,8586.388927,-77277.500345,-2298.286494
224.447791,6069.688724,-74316.676577,-3677.258390
224.450293,-4737.318029,-78609.871040,-6435.202183
224.452794,-148.041188,-76389.253214,-2451.505594
224.455296,8586.388927,-74020.594200,-14096.157163
224.457798,5625.565159,-76389.253214,-6741.640382
224.460299,3849.070898,-75501.006084,-9039.926876
224.462801,2664.741391,-74316.676577,-6588.421283
224.465303,4145.153275,-77573.582722,-1838.629195
224.467804,3997.112087,-76833.376780,-1685.410096
224.470306,6661.853478,-75204.923707,-2604.724693
224.472808,-5181.441594,-79053.994606,-306.438199
224.475309,-9622.677246,-79053.994606,8120.612279
224.477811,-740.205942,-74908.841330,5975.544884
224.480313,-1924.535449,-79202.035794,16241.224558
224.482814,-6809.894666,-76537.294403,5975.544884
224.485316,-6809.894666,-76093.170838,4136.915689
224.487818,-6069.688724,-77425.541533,-1532.190996
224.490319,-11991.336260,-76685.335591,766.095498
224.492821,-9770.718434,-71207.811620,-4903.011187
224.495323,-8734.430116,-77573.582722,3677.258390
224.497824,-6365.771101,-76241.212026,4749.792088
224.500326,-3108.864956,-75501.006084,3677.258390
224.502828,-9178.553681,-82162.859562,15168.690860
224.505329,-3552.988522,-76537.294403,9499.584175
224.507831,-1924.535449,-79646.159359,7814.174080
224.510333,-13471.748144,-78461.829852,1838.629195
224.512834,-5329.482782,-77721.623910,6281.983084
224.515336,8438.347739,-76537.294403,-2298.286494
224.517838,4589.276840,-79350.076982,-459.657299
224.520339,3108.864956,-74020.594200,-11338.213370
224.522841,2664.741391,-76685.335591,-9193.145976
224.525343,3849.070898,-76833.376780,-9346.365076
224.527844,4885.359217,-74168.635388,-3064.381992
224.530346,14211.954086,-75649.047272,-5056.230287
224.532848,444.123565,-78461.829852,3370.820191
224.535341,8586.388927,-75649.047272,-2298.286494
224.537834,5921.647536,-74908.841330,-6128.763984
224.540327,4145.153275,-79498.118171,-2451.505594
224.542820,3108.864956,-75352.964896,-2757.943793
224.545313,7698.141797,-75056.882519,-8427.050478
224.547806,6069.688724,-77721.623910,-7201.297681
224.550300,3701.029710,-74760.800142,-7814.174080
224.552793,3404.947333,-76241.212026,-8427.050478
224.555286,740.205942,-79053.994606,0.000000
224.557779,4589.276840,-72688.223504,-4903.011187
224.560272,4589.276840,-76093.170838,-1225.752797
224.562765,-11547.212695,-79794.200548,2451.505594
224.565259,-8142.265362,-75649.047272,5515.887586
224.567752,-3404.947333,-76537.294403,9039.926876
224.570245,-4589.276840,-78757.912229,13636.499864
224.572738,740.205942,-77129.459156,5209.449386
224.575231,-4885.359217,-76537.294403,766.095498
224.577724,-5477.523971,-79350.076982,3677.258390
224.580218,-11103.089130,-76241.212026,-1532.190996
224.582711,-888.247130,-75945.129649,3064.381992
224.585204,3997.112087,-77425.541533,7507.735880
224.587697,-5329.482782,-77573.582722,1838.629195
224.590190,-7994.224174,-77573.582722,8120.612279
224.592683,-7105.977043,-76241.212026,10725.336972
224.595177,740.205942,-75352.964896,7201.297681
224.597670,-1924.535449,-76241.212026,3217.601092
224.600163,-10362.883188,-75501.006084,1838.629195
224.602656,-2220.617826,-76685.335591,1685.410096
224.605149,7105.977043,-75352.964896,-3217.601092
224.607642,5921.647536,-76389.253214,-4903.011187
224.610136,4441.235652,-73724.511823,-13023.623466
224.612629,3849.070898,-75649.047272,-9806.022374
224.615122,1036.288319,-76981.417968,-5975.544884
224.617615,8586.388927,-75204.923707,-3677.258390
224.620108,1924.535449,-76685.335591,-3217.601092
224.622601,-6069.688724,-78017.706287,919.314598
224.625094,14508.036463,-75797.088461,-2604.724693
224.627588,13323.706956,-78757.912229,-2757.943793
224.630081,1036.288319,-79350.076982,-1838.629195
224.632574,5033.400406,-76981.417968,-4443.353888
224.635089,9918.759623,-77869.665098,-7201.297681
224.637605,3849.070898,-79350.076982,-4136.915689
224.640120,1480.411884,-77129.459156,-4596.572988
224.642636,7550.100608,-76537.294403,-3524.039291
224.645151,1332.370696,-77869.665098,-306.438199
224.647667,3256.906145,-74612.758954,-3064.381992
224.650182,-1480.411884,-74760.800142,-1991.848295
224.652698,-11547.212695,-77721.623910,6894.859482
224.655213,-4441.235652,-73576.470635,6128.763984
224.657728,1924.535449,-76981.417968,12257.527968
224.660244,-4885.359217,-77869.665098,7967.393179
224.662759,-4441.235652,-76093.170838,2451.505594
224.665275,-7994.224174,-75352.964896,-3370.820191
224.667790,3108.864956,-80386.365301,4290.134789
224.670306,5033.400406,-74760.800142,-766.095498
224.672821,-4589.276840,-77573.582722,4596.572988
