#time,accel_x,accel_y,accel_z
89.376207,-2220.617826,-77277.500345,459.657299
89.378655,2072.576638,-74760.800142,-1838.629195
89.381103,0.000000,-78905.953417,1532.190996
89.383551,-2220.617826,-76537.294403,0.000000
89.385999,2516.700203,-76093.170838,-1532.190996
89.388447,-2220.617826,-79053.994606,1225.752797
89.390894,5181.441594,-75204.923707,-919.314598
89.393342,11695.253884,-75204.923707,-1991.848295
89.395790,-3849.070898,-78313.788664,1991.848295
89.398238,2516.700203,-74316.676577,-766.095498
89.400686,2516.700203,-76537.294403,2604.724693
89.403134,-740.205942,-78313.788664,8580.269578
89.405582,2220.617826,-76241.212026,6128.763984
89.408029,5773.606348,-76981.417968,5515.887586
89.410477,-2072.576638,-77425.541533,3370.820191
89.412975,1480.411884,-76685.335591,-1685.410096
89.415473,4885.359217,-76537.294403,-3370.820191
89.417970,-592.164754,-76833.376780,1685.410096
89.420468,4885.359217,-75649.047272,459.657299
89.422965,888.247130,-77129.459156,4443.353888
89.425463,-6661.853478,-75204.923707,2145.067394
89.427961,-592.164754,-74168.635388,-5975.544884
89.430458,-888.247130,-78165.747475,-4443.353888
89.432956,-6809.894666,-76833.376780,-7048.078582
89.435454,-2664.741391,-75945.129649,-7814.174080
89.437951,-3404.947333,-76093.170838,-1532.190996
89.440449,-5921.647536,-76981.417968,2604.724693
89.442947,148.041188,-75056.882519,0.000000
89.445444,444.123565,-76685.335591,-459.657299
89.447942,-6513.812290,-77277.500345,-1685.410096
89.450440,5625.565159,-73132.347070,-9193.145976
89.452937,6513.812290,-78461.829852,-5209.449386
89.455435,-2664.741391,-77277.500345,-1991.848295
89.457933,4589.276840,-76981.417968,2911.162892
89.460430,-8290.306550,-79350.076982,5669.106685
89.462928,2664.741391,-79350.076982,-919.314598
89.465425,-2220.617826,-75797.088461,-3064.381992
89.467923,-3108.864956,-78461.829852,-2451.505594
89.470421,-3701.029710,-81274.612432,-4290.134789
89.472918,-888.247130,-76685.335591,-3524.039291
89.475416,-1776.494261,-78165.747475,-1532.190996
89.477914,-5773.606348,-76833.376780,919.314598
89.480411,1924.535449,-74760.800142,-3983.696590
89.482909,-2220.617826,-77425.541533,1838.629195
89.485407,-1776.494261,-74760.800142,-4596.572988
89.487904,-2516.700203,-76685.335591,-2145.067394
89.490402,-5773.606348,-76537.294403,-5822.325785
89.492900,-5181.441594,-77721.623910,-1072.533697
89.495397,296.082377,-74316.676577,-5669.106685
89.497895,888.247130,-78313.788664,1532.190996
89.500392,-1184.329507,-78313.788664,4136.915689
89.502890,-888.247130,-76981.417968,306.438199
89.505388,-4737.318029,-79646.159359,2604.724693
89.507885,740.205942,-75352.964896,-3370.820191
89.510383,4885.359217,-77869.665098,-2757.943793
89.512910,-2516.700203,-77869.665098,766.095498
89.515438,-740.205942,-75649.047272,4749.792088
89.517965,1332.370696,-75204.923707,153.219100
89.520493,-740.205942,-78165.747475,10418.898773
89.523020,6069.688724,-73872.553012,-612.876398
89.525548,4885.359217,-76685.335591,1072.533697
89.528075,-6661.853478,-77573.582722,-1072.533697
89.530602,2812.782580,-76093.170838,-3064.381992
89.533130,5329.482782,-77129.459156,-766.095498
89.535657,-2220.617826,-77573.582722,5056.230287
89.538185,2516.700203,-75501.006084,1991.848295
89.540712,148.041188,-78757.912229,7967.393179
89.543239,888.247130,-77869.665098,4903.011187
89.545767,8586.388927,-76093.170838,1532.190996
89.548294,-5921.647536,-80386.365301,1072.533697
89.550822,-10955.047942,-77721.623910,2911.162892
89.553349,3256.906145,-77129.459156,1532.190996
89.555876,-740.205942,-79498.118171,4596.572988
89.558404,-4737.318029,-78905.953417,3677.258390
89.560931,6365.771101,-76537.294403,-1072.533697
89.563459,0.000000,-80386.365301,1072.533697
89.565986,-1332.370696,-76981.417968,4136.915689
89.568513,2072.576638,-75649.047272,3830.477490
89.571041,1184.329507,-78017.706287,7814.174080
89.573568,1036.288319,-75649.047272,8733.488677
89.576096,6365.771101,-74612.758954,3217.601092
89.578623,-4885.359217,-78757.912229,4596.572988
89.581150,-444.123565,-77277.500345,-3217.601092
89.583678,4145.153275,-76241.212026,-4290.134789
89.586205,888.247130,-78165.747475,-1532.190996
89.588733,-2072.576638,-78609.871040,6588.421283
89.591260,7105.977043,-75204.923707,1225.752797
89.593787,-1628.453072,-79646.159359,11338.213370
89.596315,2368.659014,-76241.212026,3524.039291
89.598842,2072.576638,-76389.253214,2757.943793
89.601370,-2368.659014,-78017.706287,-2298.286494
89.603897,296.082377,-75352.964896,-5056.230287
89.606425,-5477.523971,-75501.006084,-8120.612279
89.608952,-3997.112087,-78609.871040,-3370.820191
89.611479,4145.153275,-74316.676577,-4903.011187
89.614027,-148.041188,-75501.006084,3524.039291
89.616574,-8882.471304,-77721.623910,1685.410096
89.619122,-3108.864956,-76389.253214,766.095498
89.621670,592.164754,-74020.594200,-5975.544884
89.624217,-6513.812290,-79350.076982,-4903.011187
89.626765,-3997.112087,-75945.129649,-8120.612279
89.629312,-3256.906145,-76093.170838,-2911.162892
89.631860,-3997.112087,-78313.788664,-1378.971896
89.634407,0.000000,-76389.253214,2298.286494
89.636955,296.082377,-75352.964896,-1532.190996
89.639502,-6809.894666,-79498.118171,2145.067394
89.642050,-3108.864956,-74760.800142,-5515.887586
89.644598,5181.441594,-78017.706287,-5362.668486
89.647145,-10066.800811,-79350.076982,-2757.943793
89.649693,-6809.894666,-77573.582722,-1838.629195
89.652240,1184.329507,-74316.676577,1072.533697
89.654788,-2960.823768,-75649.047272,-2451.505594
89.657335,-13175.665768,-73132.347070,-4443.353888
89.659883,-6217.729913,-73724.511823,-5209.449386
89.662430,-6661.853478,-75649.047272,-7048.078582
89.664978,-4885.359217,-74908.841330,-8427.050478
89.667526,1184.329507,-75056.882519,-4596.572988
89.670073,-2664.741391,-78461.829852,-612.876398
89.672621,-1480.411884,-76685.335591,-459.657299
89.675168,148.041188,-75649.047272,-459.657299
89.677716,-5033.400406,-77425.541533,459.657299
89.680263,-2516.700203,-76833.376780,-4136.915689
89.682811,-1628.453072,-78017.706287,-3677.258390
89.685358,-6365.771101,-77869.665098,-3830.477490
89.687906,-592.164754,-76537.294403,-3064.381992
89.690454,3701.029710,-77869.665098,-2145.067394
89.693001,-1628.453072,-78017.706287,3983.696590
89.695549,592.164754,-74760.800142,766.095498
89.698096,-3701.029710,-78757.912229,612.876398
89.700644,-1332.370696,-77129.459156,-1072.533697
89.703191,9326.594869,-75797.088461,-3064.381992
89.705739,2072.576638,-78461.829852,2145.067394
89.708286,-11547.212695,-79202.035794,9806.022374
89.710834,1924.535449,-75352.964896,153.219100
89.713381,3256.906145,-79202.035794,8580.269578
89.715944,2960.823768,-75204.923707,766.095498
89.718506,4885.359217,-74908.841330,-919.314598
89.721068,-2516.700203,-77573.582722,-459.657299
89.723630,-592.164754,-76093.170838,-1072.533697
89.726192,7105.977043,-75352.964896,1378.971896
89.728754,1776.494261,-77277.500345,3983.696590
89.731316,-2072.576638,-76981.417968,5056.230287
89.733878,3849.070898,-76389.253214,3370.820191
89.736440,-4737.318029,-76537.294403,2757.943793
89.739002,-4293.194464,-78017.706287,306.438199
89.741564,7105.977043,-77129.459156,-612.876398
89.744126,740.205942,-81422.653620,3983.696590
89.746688,-740.205942,-78165.747475,3983.696590
89.749250,6513.812290,-76685.335591,-612.876398
89.751812,-4441.235652,-79350.076982,0.000000
89.754374,6957.935855,-74168.635388,-1072.533697
89.756937,6365.771101,-74020.594200,919.314598
89.759499,1184.329507,-76093.170838,5362.668486
89.762061,4885.359217,-75352.964896,4903.011187
89.764623,4293.194464,-75797.088461,4903.011187
89.767185,-888.247130,-78165.747475,4596.572988
89.769747,0.000000,-75797.088461,-3524.039291
89.772309,4589.276840,-75649.047272,-3370.820191
89.774871,444.123565,-77869.665098,0.000000
89.777433,3256.906145,-76241.212026,2604.724693
89.779995,2220.617826,-77425.541533,4596.572988
89.782557,-592.164754,-79646.159359,7967.393179
89.785119,4145.153275,-75501.006084,5515.887586
89.787681,2368.659014,-76981.417968,3830.477490
89.790243,740.205942,-76981.417968,-766.095498
89.792805,-2516.700203,-76093.170838,-1532.190996
89.795367,-5921.647536,-75056.882519,-7048.078582
89.797930,-4145.153275,-80238.324113,-3217.601092
89.800492,3404.947333,-74760.800142,-6435.202183
89.803054,296.082377,-76833.376780,1225.752797
89.805616,-9326.594869,-77277.500345,459.657299
89.808178,-296.082377,-75204.923707,612.876398
89.810740,2220.617826,-75945.129649,-1685.410096
89.813302,-1776.494261,-77425.541533,-4443.353888
89.815864,-1924.535449,-75204.923707,-7660.954980
89.818424,-2072.576638,-78461.829852,-7201.297681
89.820994,-5773.606348,-79053.994606,612.876398
89.823563,2664.741391,-75797.088461,-1838.629195
89.826132,-3997.112087,-79794.200548,6128.763984
89.828701,-4441.235652,-76981.417968,-153.219100
89.831270,-2516.700203,-76685.335591,-919.314598
89.833839,-444.123565,-74760.800142,-5975.544884
89.836408,-5329.482782,-80090.282924,153.219100
89.838977,3552.988522,-75945.129649,-5209.449386
89.841546,444.123565,-79794.200548,3370.820191
89.844115,-1924.535449,-76685.335591,2604.724693
89.846684,4293.194464,-77573.582722,-919.314598
89.849253,-2368.659014,-78461.829852,-2757.943793
89.851822,-1184.329507,-77277.500345,-5669.106685
89.854391,4441.235652,-75501.006084,-6894.859482
89.856960,-3256.906145,-78461.829852,-4136.915689
89.859530,-5477.523971,-75501.006084,-2451.505594
89.862099,1184.329507,-74612.758954,-3064.381992
89.864668,-4885.359217,-77721.623910,3064.381992
89.867237,-5921.647536,-75945.129649,0.000000
89.869806,-148.041188,-75352.964896,-4749.792088
89.872375,-5921.647536,-78905.953417,-6588.421283
89.874944,-3849.070898,-77721.623910,-3677.258390
89.877513,1036.288319,-75797.088461,-7354.516781
89.880082,-5329.482782,-80830.488866,5669.106685
89.882651,2664.741391,-74760.800142,-919.314598
89.885220,-1628.453072,-76093.170838,5362.668486
89.887789,-3404.947333,-78461.829852,-306.438199
89.890358,7994.224174,-75501.006084,-2298.286494
89.892927,6365.771101,-74020.594200,-3983.696590
89.895497,-6809.894666,-79646.159359,7507.735880
89.898066,1184.329507,-74020.594200,-1225.752797
89.900635,5329.482782,-76241.212026,7201.297681
89.903204,3404.947333,-78165.747475,3983.696590
89.905773,2220.617826,-75797.088461,2757.943793
89.908342,1184.329507,-78165.747475,2145.067394
89.910911,-592.164754,-77425.541533,-1532.190996
89.913480,6365.771101,-76981.417968,306.438199
89.916049,4293.194464,-76685.335591,-459.657299
89.918618,-2368.659014,-78313.788664,7967.393179
89.921192,4145.153275,-75501.006084,2145.067394
89.923767,10362.883188,-77425.541533,4443.353888
89.926341,-8438.347739,-79202.035794,3524.039291
89.928915,-8142.265362,-75945.129649,612.876398
89.931489,-1776.494261,-79942.241736,-2911.162892
89.934064,15100.201217,-76685.335591,-306.438199
89.936638,11251.130318,-70171.523302,-2145.067394
89.939212,-592.164754,-75945.129649,-766.095498
89.941786,4737.318029,-75352.964896,-1991.848295
89.944360,10214.842000,-71651.935186,1991.848295
89.946935,-888.247130,-75945.129649,4443.353888
89.949509,-296.082377,-78609.871040,7967.393179
89.952083,888.247130,-76093.170838,4136.915689
89.954657,5477.523971,-78165.747475,1378.971896
89.957232,296.082377,-78461.829852,153.219100
89.959806,2812.782580,-75204.923707,-459.657299
89.962380,2812.782580,-80978.530055,3524.039291
89.964954,3404.947333,-79053.994606,4749.792088
89.967529,7105.977043,-75797.088461,6435.202183
89.970103,1776.494261,-79498.118171,5669.106685
89.972677,1480.411884,-79053.994606,6741.640382
89.975251,4145.153275,-73576.470635,-2604.724693
89.977826,-2960.823768,-78313.788664,4749.792088
89.980400,-5773.606348,-73724.511823,-8580.269578
89.982974,-2220.617826,-76389.253214,-7814.174080
89.985548,1480.411884,-77277.500345,-6741.640382
89.988122,-592.164754,-75204.923707,459.657299
89.990697,148.041188,-74464.717765,-766.095498
89.993271,-9770.718434,-78461.829852,1991.848295
89.995845,-2664.741391,-74908.841330,1225.752797
89.998419,3997.112087,-75204.923707,-8273.831378
90.000994,-7254.018232,-80090.282924,-1225.752797
90.003568,-3404.947333,-75056.882519,-10418.898773
90.006142,-5329.482782,-78165.747475,-2145.067394
90.008716,-3701.029710,-79053.994606,0.000000
90.011291,1184.329507,-74908.841330,1838.629195
90.013865,-3256.906145,-77129.459156,1838.629195
90.016439,-1184.329507,-78017.706287,-1378.971896
90.019013,7550.100608,-77129.459156,-4290.134789
90.021587,-740.205942,-74464.717765,-6741.640382
90.024078,-3701.029710,-80386.365301,-1685.410096
90.026569,-5921.647536,-75649.047272,-306.438199
90.029060,-592.164754,-77277.500345,3217.601092
90.031551,-6661.853478,-83051.106692,3064.381992
90.034042,-740.205942,-74908.841330,-3830.477490
90.036532,-1628.453072,-78165.747475,-3524.039291
90.039023,-4441.235652,-78461.829852,-5209.449386
90.041514,2516.700203,-75204.923707,-4596.572988
90.044005,1480.411884,-76981.417968,-1378.971896
90.046496,-5921.647536,-78165.747475,2145.067394
90.048986,-1332.370696,-75204.923707,-1378.971896
90.051477,-2220.617826,-77573.582722,-153.219100
90.053968,-3997.112087,-78165.747475,-7967.393179
90.056459,-3256.906145,-76241.212026,-5362.668486
90.058950,3108.864956,-75945.129649,-7048.078582
90.061440,-5477.523971,-78313.788664,2298.286494
90.063931,-1480.411884,-75204.923707,919.314598
90.066422,-1924.535449,-76981.417968,2451.505594
90.068913,-1480.411884,-77425.541533,919.314598
90.071404,6365.771101,-75501.006084,1685.410096
90.073894,3997.112087,-75649.047272,-2757.943793
90.076385,-4293.194464,-79498.118171,7201.297681
90.078876,2812.782580,-75945.129649,-919.314598
90.081367,8586.388927,-76685.335591,5362.668486
90.083858,1924.535449,-78017.706287,3370.820191
90.086348,5181.441594,-75797.088461,2604.724693
90.088839,-740.205942,-77129.459156,1225.752797
90.091330,296.082377,-78461.829852,2145.067394
90.093821,6217.729913,-76389.253214,0.000000
90.096312,3997.112087,-76241.212026,1225.752797
90.098802,-2960.823768,-79350.076982,6588.421283
90.101293,5033.400406,-73872.553012,-153.219100
90.103784,0.000000,-78461.829852,3677.258390
90.106275,-740.205942,-76241.212026,2604.724693
90.108766,296.082377,-76241.212026,-5822.325785
90.111256,2960.823768,-75797.088461,153.219100
90.113747,3552.988522,-73280.388258,-766.095498
90.116238,740.205942,-71503.893997,-2145.067394
90.118729,3552.988522,-75945.129649,2604.724693
90.121220,-296.082377,-75056.882519,2145.067394
90.123737,3997.112087,-74020.594200,4290.134789
90.126255,-2072.576638,-78017.706287,5056.230287
90.128773,1628.453072,-77277.500345,3524.039291
90.131290,3552.988522,-76093.170838,1378.971896
90.133808,444.123565,-78461.829852,459.657299
90.136326,-3256.906145,-78461.829852,1532.190996
90.138843,6365.771101,-75945.129649,-153.219100
90.141361,1776.494261,-78165.747475,5822.325785
90.143879,-296.082377,-75945.129649,3217.601092
90.146396,4589.276840,-76537.294403,4903.011187
90.148914,-1628.453072,-76389.253214,2911.162892
90.151432,1036.288319,-76833.376780,459.657299
90.153949,1480.411884,-75056.882519,-3983.696590
90.156467,-11103.089130,-76241.212026,-7660.954980
90.158985,-3256.906145,-79350.076982,-5362.668486
90.161502,5625.565159,-75204.923707,-8273.831378
90.164020,-2812.782580,-78165.747475,3983.696590
90.166538,-3849.070898,-76685.335591,153.219100
90.169055,1480.411884,-77129.459156,2604.724693
90.171573,-2072.576638,-76981.417968,-3524.039291
90.174091,-2960.823768,-78313.788664,-4749.792088
90.176608,-444.123565,-75352.964896,-9039.926876
90.179126,-7846.182985,-78757.912229,-5056.230287
90.181644,0.000000,-77573.582722,-766.095498
90.184161,1924.535449,-74908.841330,-2145.067394
90.186679,-3849.070898,-78313.788664,4749.792088
90.189197,-4145.153275,-75056.882519,-306.438199
90.191714,5625.565159,-75649.047272,-2451.505594
90.194232,-6069.688724,-75352.964896,-6894.859482
90.196750,-888.247130,-77129.459156,-4596.572988
90.199267,-444.123565,-75056.882519,-2451.505594
90.201785,-296.082377,-78165.747475,4596.572988
90.204247,-5625.565159,-78609.871040,459.657299
90.206709,5773.606348,-77869.665098,-2451.505594
90.209171,-7994.224174,-79202.035794,-1378.971896
90.211633,-296.082377,-77277.500345,-7048.078582
90.214095,-1776.494261,-78017.706287,-3983.696590
90.216557,-2516.700203,-76093.170838,-2451.505594
90.219019,-1036.288319,-76389.253214,-1685.410096
90.221481,-1628.453072,-76537.294403,-2451.505594
90.223942,-7994.224174,-77721.623910,1685.410096
90.226404,0.000000,-75945.129649,-7814.174080
90.228866,148.041188,-77425.541533,-4596.572988
90.231328,-3849.070898,-77721.623910,-3983.696590
90.233790,148.041188,-76389.253214,-766.095498
90.236252,-3552.988522,-75945.129649,919.314598
90.238714,-4885.359217,-77425.541533,3524.039291
90.241176,7254.018232,-76389.253214,-919.314598
90.243638,3552.988522,-77277.500345,5209.449386
90.246100,-888.247130,-77277.500345,1685.410096
90.248562,296.082377,-76241.212026,3830.477490
90.251024,-296.082377,-77869.665098,1532.190996
90.253486,2072.576638,-79202.035794,5822.325785
90.255948,7846.182985,-76093.170838,1072.533697
90.258410,148.041188,-76833.376780,3830.477490
90.260872,-3849.070898,-77425.541533,2145.067394
90.263334,5329.482782,-75352.964896,0.000000
90.265795,3701.029710,-76981.417968,612.876398
90.268257,0.000000,-76981.417968,2911.162892
90.270719,3404.947333,-75352.964896,-612.876398
90.273181,4589.276840,-76537.294403,2604.724693
90.275643,2960.823768,-77277.500345,2757.943793
90.278105,5329.482782,-72984.305881,-3370.820191
90.280567,-4145.153275,-76981.417968,-459.657299
90.283029,2072.576638,-76241.212026,-1225.752797
90.285491,7846.182985,-74020.594200,919.314598
90.287953,5773.606348,-76389.253214,766.095498
90.290415,3701.029710,-78609.871040,7507.735880
90.292877,7402.059420,-73724.511823,2145.067394
90.295339,-740.205942,-80682.447678,9346.365076
90.297801,2812.782580,-79053.994606,3830.477490
90.300263,7698.141797,-75204.923707,-459.657299
90.302760,148.041188,-79350.076982,1072.533697
90.305257,2368.659014,-77425.541533,153.219100
90.307754,3404.947333,-76537.294403,1532.190996
90.310250,-740.205942,-78905.953417,6281.983084
90.312747,3108.864956,-78165.747475,7354.516781
90.315244,4885.359217,-75649.047272,5515.887586
90.317741,1628.453072,-78313.788664,1378.971896
90.320238,-2072.576638,-78313.788664,2604.724693
90.322735,-2220.617826,-73132.347070,-9039.926876
90.325232,-8142.265362,-80682.447678,-6435.202183
90.327729,888.247130,-78017.706287,-4903.011187
90.330226,6957.935855,-73428.429446,-4136.915689
90.332723,-7550.100608,-79646.159359,4596.572988
90.335220,-3701.029710,-75797.088461,766.095498
90.337717,592.164754,-77129.459156,1991.848295
90.340214,-5181.441594,-77869.665098,-3370.820191
90.342711,-3997.112087,-77869.665098,-5056.230287
90.345208,-1184.329507,-74464.717765,-11031.775171
90.347705,-5773.606348,-79053.994606,-1225.752797
90.350202,-592.164754,-75352.964896,-1685.410096
90.352699,2664.741391,-76241.212026,1072.533697
90.355196,-1628.453072,-78905.953417,3830.477490
90.357693,1628.453072,-77425.541533,-2604.724693
90.360189,-1628.453072,-74316.676577,-5669.106685
90.362686,-12435.459826,-79942.241736,1991.848295
90.365183,6069.688724,-76537.294403,-8120.612279
90.367680,-3997.112087,-78165.747475,0.000000
90.370177,-6217.729913,-75501.006084,1072.533697
90.372674,-1184.329507,-74760.800142,-3524.039291
90.375171,-148.041188,-78313.788664,-6128.763984
90.377668,-8290.306550,-78313.788664,-612.876398
90.380165,-740.205942,-72984.305881,-7660.954980
90.382662,1332.370696,-78313.788664,-2604.724693
90.385159,-4441.235652,-76093.170838,-1685.410096
90.387656,-148.041188,-74760.800142,-3064.381992
90.390153,-5033.400406,-76537.294403,-2451.505594
90.392650,-6365.771101,-76981.417968,-2604.724693
90.395147,4145.153275,-75352.964896,-7814.174080
90.397644,-4589.276840,-78757.912229,-1225.752797
90.400141,-4293.194464,-76241.212026,-306.438199
90.402664,-592.164754,-74316.676577,-1685.410096
90.405188,2368.659014,-78017.706287,1378.971896
90.407712,2220.617826,-77869.665098,4290.134789
90.410235,6661.853478,-74316.676577,1072.533697
90.412759,2812.782580,-78017.706287,5515.887586
90.415283,-1036.288319,-76833.376780,2911.162892
90.417806,7994.224174,-74760.800142,1225.752797
90.420330,3256.906145,-79202.035794,1838.629195
90.422853,888.247130,-77277.500345,2757.943793
90.425377,2960.823768,-75797.088461,153.219100
90.427901,-2220.617826,-78757.912229,3524.039291
90.430424,3701.029710,-76241.212026,1991.848295
90.432948,6661.853478,-75204.923707,1225.752797
90.435472,-3552.988522,-77721.623910,3064.381992
90.437995,-5477.523971,-78017.706287,3983.696590
90.440519,740.205942,-73872.553012,1225.752797
90.443043,2516.700203,-80534.406490,4749.792088
90.445566,-1036.288319,-77721.623910,919.314598
90.448090,12139.377449,-75352.964896,-1072.533697
90.450614,-3108.864956,-79942.241736,3524.039291
90.453137,5773.606348,-74908.841330,2145.067394
90.455661,6513.812290,-75056.882519,2451.505594
90.458184,1332.370696,-76833.376780,7507.735880
90.460708,-1480.411884,-75501.006084,4136.915689
90.463232,3256.906145,-76241.212026,1225.752797
90.465755,4737.318029,-78017.706287,-2145.067394
90.468279,-1628.453072,-78461.829852,1072.533697
90.470803,4441.235652,-75056.882519,-2451.505594
90.473326,-888.247130,-79202.035794,5209.449386
90.475850,1776.494261,-76241.212026,4443.353888
90.478374,6513.812290,-75649.047272,5362.668486
90.480897,-2072.576638,-77277.500345,6128.763984
90.483421,-1480.411884,-76833.376780,153.219100
90.485945,888.247130,-75352.964896,-2145.067394
90.488468,-9178.553681,-75649.047272,-9346.365076
90.490992,-3701.029710,-78461.829852,-8120.612279
90.493516,6365.771101,-74020.594200,-8120.612279
90.496039,-2812.782580,-77721.623910,3983.696590
90.498563,-6957.935855,-77573.582722,919.314598
90.501086,0.000000,-75649.047272,2451.505594
90.503631,-296.082377,-75945.129649,-2298.286494
90.506176,-1924.535449,-76537.294403,-4596.572988
90.508720,-1036.288319,-76093.170838,-8733.488677
90.511265,-6809.894666,-78757.912229,-6741.640382
90.513809,-1480.411884,-77129.459156,-1532.190996
90.516354,3256.906145,-75649.047272,-1072.533697
90.518898,-5477.523971,-78609.871040,4290.134789
90.521443,-9030.512492,-75649.047272,766.095498
90.523987,-888.247130,-77129.459156,1532.190996
90.526532,-592.164754,-78609.871040,-5056.230287
90.529076,-148.041188,-78609.871040,-2145.067394
90.531621,5921.647536,-76685.335591,612.876398
90.534166,-6809.894666,-77721.623910,-3677.258390
90.536710,-4589.276840,-79794.200548,1838.629195
90.539255,888.247130,-74612.758954,-6435.202183
90.541799,-3849.070898,-79053.994606,-2145.067394
90.544344,-3552.988522,-75501.006084,-5975.544884
90.546888,-2368.659014,-74316.676577,-2298.286494
90.549433,-6217.729913,-77721.623910,-1991.848295
90.551977,-2072.576638,-74908.841330,-2911.162892
90.554522,592.164754,-73872.553012,-5515.887586
90.557067,-6069.688724,-77425.541533,-4290.134789
90.559611,-592.164754,-78017.706287,-2145.067394
90.562156,2220.617826,-73280.388258,-3677.258390
90.564700,-9474.636058,-79350.076982,1685.410096
90.567245,-296.082377,-76389.253214,-2145.067394
90.569789,6365.771101,-76241.212026,306.438199
90.572334,3108.864956,-78905.953417,5822.325785
90.574878,5181.441594,-75204.923707,766.095498
90.577423,1628.453072,-78609.871040,8120.612279
90.579967,-1184.329507,-76685.335591,1072.533697
90.582512,8734.430116,-74760.800142,2145.067394
90.585057,7994.224174,-74020.594200,-3217.601092
90.587601,-4293.194464,-78017.706287,4903.011187
90.590146,2220.617826,-75945.129649,-766.095498
90.592690,2664.741391,-76833.376780,3983.696590
90.595235,3701.029710,-78461.829852,3677.258390
90.597779,5329.482782,-75501.006084,1685.410096
90.600324,740.205942,-77425.541533,4596.572988
90.602868,4589.276840,-79794.200548,3217.601092
90.605427,7994.224174,-73872.553012,-2145.067394
90.607986,740.205942,-76685.335591,-612.876398
90.610544,-8586.388927,-78609.871040,1225.752797
90.613103,-3256.906145,-74464.717765,-766.095498
90.615662,2368.659014,-77573.582722,2911.162892
90.618221,1184.329507,-78905.953417,7201.297681
90.620779,6957.935855,-75352.964896,2298.286494
90.623338,3404.947333,-80238.324113,10725.336972
90.625897,444.123565,-77721.623910,2757.943793
90.628455,6365.771101,-75501.006084,0.000000
90.631014,3404.947333,-78905.953417,-459.657299
90.633573,2812.782580,-78017.706287,153.219100
90.636131,2368.659014,-74760.800142,1072.533697
90.638690,-740.205942,-78165.747475,5362.668486
90.641249,3256.906145,-77721.623910,7967.393179
90.643807,-740.205942,-74168.635388,4136.915689
90.646366,296.082377,-79498.118171,5362.668486
90.648925,-7846.182985,-76537.294403,-3830.477490
90.651483,-4885.359217,-74612.758954,-12563.966167
90.654042,-2220.617826,-80386.365301,-6894.859482
90.656601,2368.659014,-75352.964896,-7201.297681
90.659160,-888.247130,-74908.841330,2145.067394
90.661718,-9178.553681,-78609.871040,1225.752797
90.664277,-4441.235652,-78017.706287,4903.011187
90.666836,3849.070898,-72984.305881,-5056.230287
90.669394,-2220.617826,-79350.076982,-3217.601092
90.671953,-4441.235652,-76981.417968,-7660.954980
90.674512,-888.247130,-75797.088461,-7814.174080
90.677070,-2664.741391,-78609.871040,-2298.286494
90.679629,-3701.029710,-76833.376780,1991.848295
90.682188,10066.800811,-74908.841330,-459.657299
90.684746,888.247130,-78609.871040,1225.752797
90.687305,-3404.947333,-77129.459156,1685.410096
90.689864,-4293.194464,-75797.088461,-7814.174080
90.692422,-9474.636058,-83791.312634,2451.505594
90.694981,2960.823768,-76981.417968,-3370.820191
90.697540,-3404.947333,-75797.088461,153.219100
90.700099,-5181.441594,-79646.159359,-1685.410096
90.702657,-2072.576638,-75352.964896,-3064.381992
90.705216,-1480.411884,-76093.170838,-3830.477490
90.707785,-5773.606348,-79646.159359,-153.219100
90.710355,-6365.771101,-76389.253214,-4443.353888
90.712924,-1924.535449,-75204.923707,-4443.353888
90.715493,-4145.153275,-78609.871040,-3370.820191
90.718063,-2368.659014,-74316.676577,-3983.696590
90.720632,0.000000,-75797.088461,-3830.477490
90.723201,-5329.482782,-77425.541533,-1225.752797
90.725771,-2072.576638,-74316.676577,-1685.410096
90.728340,-888.247130,-74760.800142,-3064.381992
90.730909,888.247130,-80534.406490,2145.067394
90.733479,6365.771101,-75352.964896,2757.943793
90.736048,3256.906145,-76833.376780,4443.353888
90.738617,-1628.453072,-79646.159359,7814.174080
90.741187,1036.288319,-75204.923707,2145.067394
90.743756,6809.894666,-76241.212026,3064.381992
90.746325,740.205942,-79646.159359,1378.971896
90.748895,-444.123565,-74760.800142,1532.190996
90.751464,2664.741391,-77277.500345,-612.876398
90.754033,-2220.617826,-78461.829852,5056.230287
90.756603,5921.647536,-74908.841330,-612.876398
90.759172,4737.318029,-77425.541533,5209.449386
90.761741,3256.906145,-76685.335591,1378.971896
90.764311,7402.059420,-75352.964896,1685.410096
90.766880,1184.329507,-75501.006084,-2451.505594
90.769449,0.000000,-77277.500345,153.219100
90.772019,4885.359217,-72244.099939,-5362.668486
90.774588,-1480.411884,-72688.223504,1072.533697
90.777158,1036.288319,-76981.417968,3524.039291
90.779727,8734.430116,-74316.676577,2145.067394
90.782296,1628.453072,-76833.376780,7660.954980
90.784866,-1036.288319,-78905.953417,3983.696590
90.787435,3404.947333,-77869.665098,2298.286494
90.790004,2516.700203,-79646.159359,919.314598
90.792574,1628.453072,-79942.241736,1225.752797
90.795143,7402.059420,-75945.129649,0.000000
90.797712,4441.235652,-77277.500345,4749.792088
90.800282,592.164754,-80090.282924,9193.145976
90.802851,-296.082377,-75204.923707,4290.134789
90.805420,2664.741391,-76389.253214,766.095498
90.807990,-4145.153275,-76981.417968,1225.752797
90.810561,-5625.565159,-70467.605678,-14555.814462
90.813139,-5625.565159,-79498.118171,-7201.297681
90.815717,1924.535449,-76685.335591,-8273.831378
90.818294,1628.453072,-73576.470635,-919.314598
90.820872,-7698.141797,-78017.706287,2451.505594
90.823449,-8290.306550,-78461.829852,3064.381992
90.826027,-296.082377,-76093.170838,612.876398
90.828605,-3404.947333,-79053.994606,-5209.449386
90.831182,-6809.894666,-79350.076982,-5209.449386
90.833760,-2220.617826,-74908.841330,-9346.365076
90.836337,-3108.864956,-79942.241736,-1225.752797
90.838915,-2960.823768,-76241.212026,-1685.410096
90.841493,6365.771101,-74020.594200,459.657299
90.844070,4737.318029,-77425.541533,-1225.752797
90.846648,0.000000,-77573.582722,3830.477490
90.849225,7550.100608,-73724.511823,-11797.870669
90.851803,148.041188,-82014.818374,1838.629195
90.854381,-2220.617826,-78757.912229,-2911.162892
90.856958,-888.247130,-77277.500345,1378.971896
90.859536,-4589.276840,-78905.953417,-3064.381992
90.862114,-4885.359217,-77869.665098,-766.095498
90.864691,2812.782580,-76537.294403,-4443.353888
90.867269,-4293.194464,-80534.406490,153.219100
90.869846,-7254.018232,-75501.006084,-2451.505594
90.872424,-592.164754,-75352.964896,-5209.449386
90.875002,-4737.318029,-79646.159359,-1838.629195
90.877579,148.041188,-76093.170838,-3064.381992
90.880157,1184.329507,-76833.376780,-1225.752797
90.882734,-1480.411884,-78165.747475,-612.876398
90.885312,-5477.523971,-76833.376780,2145.067394
90.887890,7402.059420,-75649.047272,-2757.943793
90.890467,5329.482782,-79498.118171,4136.915689
90.893045,-740.205942,-76833.376780,3677.258390
90.895622,1480.411884,-77425.541533,4596.572988
90.898200,1776.494261,-76685.335591,3524.039291
90.900778,1480.411884,-76833.376780,4749.792088
90.903355,8290.306550,-75204.923707,-919.314598
90.905933,-1332.370696,-77721.623910,2145.067394
90.908510,-592.164754,-75945.129649,-306.438199
90.911088,3256.906145,-76389.253214,2911.162892
90.913670,888.247130,-77573.582722,1991.848295
90.916252,-148.041188,-77869.665098,4749.792088
90.918834,9030.512492,-75501.006084,306.438199
90.921417,888.247130,-77425.541533,4903.011187
90.923999,2664.741391,-77425.541533,-1991.848295
90.926581,-2368.659014,-75649.047272,1072.533697
90.929163,-6217.729913,-77425.541533,0.000000
90.931745,-1776.494261,-74020.594200,919.314598
90.934327,5181.441594,-74464.717765,-459.657299
90.936909,3108.864956,-75056.882519,5209.449386
90.939491,1776.494261,-75056.882519,4443.353888
90.942074,3108.864956,-76685.335591,3064.381992
90.944656,740.205942,-78461.829852,919.314598
90.947238,4589.276840,-76093.170838,1072.533697
90.949820,5033.400406,-77573.582722,-2145.067394
90.952402,-1036.288319,-79646.159359,5209.449386
90.954984,740.205942,-76537.294403,4903.011187
90.957566,6513.812290,-76833.376780,9039.926876
90.960148,-296.082377,-77129.459156,3830.477490
90.962730,-2220.617826,-78461.829852,5822.325785
90.965313,-5181.441594,-75204.923707,-8273.831378
90.967895,-8734.430116,-78905.953417,-9806.022374
90.970477,888.247130,-76833.376780,-7354.516781
90.973059,5773.606348,-74760.800142,-7507.735880
90.975641,-10066.800811,-78757.912229,4136.915689
90.978223,-3108.864956,-74760.800142,-1991.848295
90.980805,296.082377,-78017.706287,6128.763984
90.983387,296.082377,-75501.006084,-5209.449386
90.985970,-1480.411884,-77573.582722,-3677.258390
90.988552,-1776.494261,-73428.429446,-14249.376263
90.991134,-5773.606348,-79350.076982,-3064.381992
90.993716,1776.494261,-75352.964896,-4136.915689
90.996298,1628.453072,-75501.006084,766.095498
90.998880,592.164754,-79202.035794,2757.943793
91.001462,-148.041188,-77129.459156,4903.011187
91.004044,-2368.659014,-77425.541533,-3983.696590
91.006626,-6217.729913,-82755.024316,919.314598
91.009209,2664.741391,-78313.788664,-3064.381992
91.011791,-4145.153275,-77425.541533,-766.095498
91.014373,-5625.565159,-80386.365301,-1685.410096
91.016958,-592.164754,-76241.212026,-2298.286494
91.019544,-1924.535449,-78313.788664,-459.657299
91.022130,-5625.565159,-79350.076982,-153.219100
91.024715,-2960.823768,-74760.800142,-3064.381992
91.027301,-4145.153275,-76389.253214,-3830.477490
91.029886,-4589.276840,-77425.541533,-5209.449386
91.032472,740.205942,-75056.882519,-4290.134789
91.035058,-1184.329507,-75056.882519,-6281.983084
91.037643,-5033.400406,-78461.829852,2145.067394
91.040229,-1628.453072,-73872.553012,-4596.572988
91.042814,-592.164754,-79202.035794,2757.943793
91.045400,5477.523971,-78017.706287,3983.696590
91.047986,6809.894666,-74612.758954,3677.258390
91.050571,296.082377,-79646.159359,6128.763984
91.053157,-2072.576638,-76685.335591,3217.601092
91.055742,5329.482782,-75797.088461,3370.820191
91.058328,7846.182985,-77425.541533,-766.095498
91.060914,-2072.576638,-76685.335591,4290.134789
91.063499,4885.359217,-74464.717765,-3064.381992
91.066085,1628.453072,-79053.994606,4136.915689
91.068670,2960.823768,-74760.800142,2451.505594
91.071256,10214.842000,-74612.758954,1991.848295
91.073842,-3552.988522,-78313.788664,5362.668486
91.076427,-1924.535449,-76981.417968,2757.943793
91.079013,5625.565159,-74464.717765,-1072.533697
91.081598,-444.123565,-78313.788664,1685.410096
91.084184,3108.864956,-79053.994606,2604.724693
91.086770,5181.441594,-80386.365301,5669.106685
91.089355,2368.659014,-80534.406490,7507.735880
91.091941,2812.782580,-79202.035794,10112.460574
91.094526,5921.647536,-75945.129649,3830.477490
91.097112,148.041188,-78165.747475,2911.162892
91.099698,2220.617826,-75501.006084,0.000000
91.102283,8142.265362,-74908.841330,-5515.887586
91.104869,592.164754,-78017.706287,3217.601092
91.107454,3256.906145,-73872.553012,306.438199
91.110040,4441.235652,-75056.882519,5515.887586
91.112626,-740.205942,-76537.294403,5056.230287
91.115211,296.082377,-76685.335591,7814.174080
91.117797,-444.123565,-74316.676577,-5975.544884
91.120383,-9622.677246,-77721.623910,-9193.145976
91.122970,-3997.112087,-79053.994606,-7354.516781
91.125557,6217.729913,-75204.923707,-10418.898773
91.128144,-7402.059420,-78609.871040,4290.134789
91.130730,-8586.388927,-76389.253214,-919.314598
91.133317,-1480.411884,-76833.376780,2451.505594
91.135904,-7994.224174,-76389.253214,1991.848295
91.138490,148.041188,-75352.964896,-6435.202183
91.141077,888.247130,-75352.964896,-12410.747068
91.143664,-9326.594869,-78609.871040,-4443.353888
91.146251,-2812.782580,-75797.088461,-5362.668486
91.148837,9030.512492,-75352.964896,-3370.820191
91.151424,-1776.494261,-77721.623910,2145.067394
91.154011,-2960.823768,-71799.976374,-2145.067394
91.156597,-9326.594869,-76981.417968,-3064.381992
91.159184,-10955.047942,-78461.829852,-1532.190996
91.161771,-2812.782580,-75649.047272,-5056.230287
91.164357,-4293.194464,-75945.129649,-3370.820191
91.166944,-4737.318029,-77869.665098,-5669.106685
91.169531,-1628.453072,-76537.294403,-4290.134789
91.172118,3108.864956,-76241.212026,-5209.449386
91.174704,-5033.400406,-80090.282924,3217.601092
91.177291,0.000000,-74760.800142,-6588.421283
91.179878,-1480.411884,-77425.541533,-459.657299
91.182464,-6217.729913,-76833.376780,-4903.011187
91.185051,-1332.370696,-75797.088461,-4443.353888
91.187638,-444.123565,-75945.129649,-3983.696590
91.190225,-9622.677246,-76389.253214,-612.876398
91.192811,1480.411884,-75204.923707,-3677.258390
91.195398,3404.947333,-78017.706287,4136.915689
91.197985,4737.318029,-76389.253214,4749.792088
91.200571,5329.482782,-75945.129649,2911.162892
91.203158,-296.082377,-77573.582722,6894.859482
91.205745,-2664.741391,-79053.994606,4136.915689
91.208332,9326.594869,-76833.376780,2911.162892
91.210918,3108.864956,-76537.294403,-153.219100
91.213505,-3849.070898,-79202.035794,5669.106685
91.216092,4589.276840,-75352.964896,-1685.410096
91.218678,-444.123565,-78757.912229,8580.269578
91.221265,3108.864956,-75501.006084,1225.752797
91.223853,-1924.535449,-75945.129649,4596.572988
91.226440,-1184.329507,-76981.417968,2145.067394
91.229028,-148.041188,-77425.541533,1991.848295
91.231616,5329.482782,-76241.212026,-3677.258390
91.234203,4293.194464,-76537.294403,1838.629195
91.236791,-2072.576638,-78165.747475,4443.353888
91.239378,6809.894666,-77869.665098,3064.381992
91.241966,0.000000,-77277.500345,9499.584175
91.244554,148.041188,-77721.623910,6281.983084
91.247141,5625.565159,-75945.129649,1685.410096
91.249729,-148.041188,-78017.706287,2911.162892
91.252316,1776.494261,-76093.170838,-919.314598
91.254904,4885.359217,-75056.882519,-2298.286494
91.257492,296.082377,-78757.912229,3064.381992
91.260079,4293.194464,-75649.047272,4749.792088
91.262667,2812.782580,-75056.882519,5056.230287
91.265254,0.000000,-77425.541533,7660.954980
91.267842,-7550.100608,-74760.800142,-4903.011187
91.270430,-1924.535449,-74908.841330,-11951.089769
91.273017,-4737.318029,-79942.241736,-6741.640382
91.275605,1332.370696,-74168.635388,-10725.336972
91.278193,-2516.700203,-77721.623910,1225.752797
91.280780,-10658.965565,-78757.912229,1225.752797
91.283368,-2812.782580,-77129.459156,3064.381992
91.285955,-296.082377,-76241.212026,1991.848295
91.288543,-6217.729913,-78017.706287,-3217.601092
91.291131,-3997.112087,-76093.170838,-7201.297681
91.293718,-2812.782580,-75649.047272,-9346.365076
91.296306,-5625.565159,-79202.035794,-3217.601092
91.298893,3404.947333,-80090.282924,1991.848295
91.301481,-1924.535449,-73280.388258,-153.219100
91.304069,2072.576638,-76389.253214,2298.286494
91.306656,1480.411884,-77129.459156,-3830.477490
91.309244,-3256.906145,-75945.129649,-3370.820191
91.311832,-3849.070898,-76537.294403,-5209.449386
91.314419,-3849.070898,-77129.459156,-5515.887586
91.317007,1332.370696,-74908.841330,-6128.763984
91.319594,-6069.688724,-79053.994606,-612.876398
91.322182,-5033.400406,-77425.541533,-1225.752797
91.324770,740.205942,-74760.800142,-2451.505594
91.327358,-1628.453072,-77573.582722,306.438199
91.329946,-6365.771101,-76833.376780,-4290.134789
91.332534,0.000000,-75649.047272,-7354.516781
91.335122,-2812.782580,-77721.623910,-2604.724693
91.337710,-6217.729913,-76241.212026,-1532.190996
91.340298,1332.370696,-74760.800142,-2757.943793
91.342886,2072.576638,-78461.829852,4290.134789
91.345474,5033.400406,-76241.212026,5209.449386
91.348062,6809.894666,-75501.006084,4290.134789
91.350650,-2516.700203,-80090.282924,9959.241474
91.353238,1628.453072,-74168.635388,612.876398
91.355826,7254.018232,-76093.170838,-306.438199
91.358414,3552.988522,-78165.747475,0.000000
91.361002,-1776.494261,-76537.294403,1532.190996
91.363591,3404.947333,-75352.964896,1532.190996
91.366179,-296.082377,-78165.747475,6128.763984
91.368767,0.000000,-76981.417968,7507.735880
91.371355,8290.306550,-74464.717765,153.219100
91.373943,-2072.576638,-79053.994606,3524.039291
91.376531,-2960.823768,-74760.800142,-2298.286494
91.379119,0.000000,-75056.882519,-1991.848295
91.381707,4293.194464,-79350.076982,2451.505594
91.384295,10066.800811,-75056.882519,766.095498
91.386883,4441.235652,-77129.459156,9806.022374
91.389471,2072.576638,-77425.541533,5362.668486
91.392059,1924.535449,-77277.500345,6281.983084
91.394647,6217.729913,-75056.882519,459.657299
91.397235,2220.617826,-79498.118171,2298.286494
91.399823,1036.288319,-76093.170838,-1378.971896
91.402411,3108.864956,-76833.376780,1991.848295
91.405000,4293.194464,-78609.871040,3370.820191
91.407588,1480.411884,-76685.335591,9039.926876
91.410175,3701.029710,-75501.006084,3064.381992
91.412763,-3849.070898,-80238.324113,9652.803275
91.415350,-5033.400406,-71503.893997,-9652.803275
91.417938,-3997.112087,-79498.118171,-10112.460574
91.420525,-296.082377,-77425.541533,-12104.308868
91.423113,-296.082377,-74908.841330,-4903.011187
91.425701,-2072.576638,-76685.335591,-1685.410096
91.428288,-8290.306550,-77425.541533,4290.134789
91.430876,-1480.411884,-74168.635388,1838.629195
91.433463,1924.535449,-75352.964896,-3217.601092
91.436051,-7994.224174,-78165.747475,-3524.039291
91.438638,-4145.153275,-74464.717765,-10878.556072
91.441226,-1332.370696,-78757.912229,-5975.544884
91.443814,-8290.306550,-77869.665098,-1378.971896
91.446401,740.205942,-76685.335591,919.314598
91.448989,444.123565,-79646.159359,9806.022374
91.451576,-2960.823768,-80090.282924,-1991.848295
91.454164,-3256.906145,-76833.376780,-4596.572988
91.456751,-3108.864956,-73280.388258,-4749.792088
91.459339,-7105.977043,-77573.582722,-5362.668486
91.461927,-2072.576638,-74464.717765,-9039.926876
91.464514,-5773.606348,-76389.253214,-2604.724693
91.467102,-3108.864956,-76537.294403,-4443.353888
91.469689,-1332.370696,-75501.006084,-306.438199
91.472277,-4293.194464,-76685.335591,0.000000
91.474864,-7846.182985,-76685.335591,-2757.943793
91.477452,3552.988522,-75797.088461,-7660.954980
91.480040,-3404.947333,-79498.118171,-1072.533697
91.482627,-4885.359217,-78461.829852,-3524.039291
91.485215,-740.205942,-75352.964896,-1532.190996
91.487802,5329.482782,-77721.623910,2298.286494
91.490390,4737.318029,-80238.324113,9652.803275
91.492977,6513.812290,-74316.676577,3524.039291
91.495565,-3701.029710,-80386.365301,12717.185267
91.498152,-1628.453072,-75797.088461,-766.095498
91.500740,6069.688724,-75501.006084,1072.533697
91.503328,2664.741391,-77869.665098,-2298.286494
91.505915,1332.370696,-76093.170838,-153.219100
91.508503,1184.329507,-75056.882519,2145.067394
91.511090,1036.288319,-78757.912229,5209.449386
91.513677,-3108.864956,-77721.623910,5822.325785
91.516263,10658.965565,-72540.182316,766.095498
91.518850,5773.606348,-78609.871040,1378.971896
91.521436,-1776.494261,-75945.129649,-153.219100
91.524022,1776.494261,-77721.623910,0.000000
91.526609,2812.782580,-79794.200548,2145.067394
91.529195,1628.453072,-78609.871040,9499.584175
91.531782,8882.471304,-76833.376780,1991.848295
91.534368,-1184.329507,-80682.447678,12870.404366
91.536955,2072.576638,-73428.429446,1991.848295
91.539541,3552.988522,-76241.212026,3830.477490
91.542127,2072.576638,-78165.747475,-919.314598
91.544714,888.247130,-76685.335591,-459.657299
91.547300,2664.741391,-75352.964896,-459.657299
91.549887,888.247130,-78017.706287,7354.516781
91.552473,-1184.329507,-75204.923707,5669.106685
91.555060,3849.070898,-74908.841330,4443.353888
91.557646,-6957.935855,-77129.459156,3524.039291
91.560232,-9326.594869,-73132.347070,-13023.623466
91.562819,-1628.453072,-79053.994606,-8427.050478
91.565405,-1776.494261,-76537.294403,-11951.089769
91.567992,-2812.782580,-74612.758954,-3677.258390
91.570578,-3849.070898,-78017.706287,-1225.752797
91.573165,-11547.212695,-78165.747475,6741.640382
91.575751,-2220.617826,-77277.500345,2604.724693
91.578337,1776.494261,-75056.882519,-5822.325785
91.580924,-10955.047942,-78905.953417,-4903.011187
91.583510,-3404.947333,-76241.212026,-10418.898773
91.586097,3701.029710,-75945.129649,-7660.954980
91.588683,1332.370696,-79053.994606,-1685.410096
91.591270,-3256.906145,-72688.223504,766.095498
91.593856,1628.453072,-75945.129649,1532.190996
91.596442,-3256.906145,-78165.747475,-1991.848295
91.599029,-3404.947333,-72688.223504,-6128.763984
91.601615,-7698.141797,-76981.417968,-7660.954980
91.604202,-5329.482782,-78757.912229,-7201.297681
91.606788,-3552.988522,-75945.129649,-7967.393179
91.609375,592.164754,-75649.047272,-1838.629195
91.611961,-3404.947333,-78609.871040,-306.438199
91.614547,-1628.453072,-75649.047272,306.438199
91.617133,-1036.288319,-75797.088461,-1838.629195
91.619719,-3404.947333,-78905.953417,-1991.848295
91.622305,1184.329507,-75797.088461,-7354.516781
91.624891,-296.082377,-77869.665098,-4290.134789
91.627476,-7698.141797,-78017.706287,-2911.162892
91.630062,4145.153275,-76093.170838,766.095498
91.632648,6365.771101,-78609.871040,7048.078582
91.635234,740.205942,-76685.335591,8886.707777
91.637820,1036.288319,-77277.500345,8427.050478
91.640406,3108.864956,-75056.882519,2604.724693
91.642991,1628.453072,-79646.159359,1378.971896
91.645577,7846.182985,-75204.923707,-4596.572988
91.648163,2516.700203,-76389.253214,-766.095498
91.650749,-3108.864956,-79053.994606,5669.106685
91.653335,5625.565159,-75649.047272,3217.601092
91.655920,6069.688724,-77277.500345,10725.336972
91.658506,-4589.276840,-77869.665098,5362.668486
91.661092,5625.565159,-77869.665098,1991.848295
91.663678,-5033.400406,-78757.912229,-2298.286494
91.666264,-2516.700203,-81570.694808,4443.353888
91.668849,8586.388927,-73428.429446,-1532.190996
91.671435,2812.782580,-78905.953417,7814.174080
91.674021,1332.370696,-77573.582722,6128.763984
91.676607,4145.153275,-74612.758954,6588.421283
91.679193,3701.029710,-77277.500345,4136.915689
91.681778,2072.576638,-75649.047272,766.095498
91.684364,4145.153275,-74760.800142,-3217.601092
91.686950,-444.123565,-79498.118171,766.095498
91.689536,2960.823768,-76537.294403,1532.190996
91.692122,8586.388927,-76833.376780,8120.612279
91.694707,3404.947333,-77721.623910,5822.325785
91.697293,-1924.535449,-78757.912229,11184.994271
91.699879,-4737.318029,-71503.893997,-8580.269578
91.702465,-4737.318029,-80238.324113,-8733.488677
91.705051,-592.164754,-77869.665098,-11644.651570
91.707636,5921.647536,-73872.553012,-10418.898773
91.710222,-5477.523971,-78905.953417,-919.314598
91.712808,-10214.842000,-77277.500345,5362.668486
91.715394,3108.864956,-75204.923707,2451.505594
91.717980,-2368.659014,-78165.747475,3064.381992
91.720561,-7550.100608,-77277.500345,-4290.134789
91.723145,-592.164754,-74612.758954,-12257.527968
91.725729,296.082377,-78609.871040,-9039.926876
91.728313,-11103.089130,-76389.253214,-3524.039291
91.730897,1036.288319,-76685.335591,8427.050478
91.733481,1924.535449,-76093.170838,-766.095498
91.736065,-2664.741391,-83051.106692,7660.954980
91.738649,4145.153275,-77869.665098,-4903.011187
91.741233,-1924.535449,-78017.706287,-1685.410096
91.743817,-8882.471304,-80978.530055,-5822.325785
91.746401,-1628.453072,-76241.212026,-7814.174080
91.748985,-4145.153275,-76685.335591,-2604.724693
91.751569,-5477.523971,-76537.294403,-919.314598
91.754153,296.082377,-75204.923707,306.438199
91.756737,-6957.935855,-74908.841330,-1991.848295
91.759321,-2368.659014,-76685.335591,-1685.410096
91.761905,2516.700203,-73576.470635,-11338.213370
91.764489,-6217.729913,-76093.170838,-4443.353888
91.767073,-1924.535449,-78165.747475,-5056.230287
91.769657,7698.141797,-75352.964896,1378.971896
91.772242,5773.606348,-76981.417968,8427.050478
91.774826,148.041188,-78017.706287,11184.994271
91.777410,2516.700203,-75797.088461,9959.241474
91.779994,148.041188,-77277.500345,3677.258390
91.782578,3256.906145,-77573.582722,153.219100
91.785162,7698.141797,-75352.964896,-5515.887586
91.787746,296.082377,-78313.788664,-153.219100
91.790330,0.000000,-77573.582722,4136.915689
91.792914,7105.977043,-75501.006084,5822.325785
91.795498,1480.411884,-77129.459156,7507.735880
91.798082,740.205942,-77573.582722,5822.325785
91.800666,3404.947333,-78757.912229,306.438199
91.803250,10510.924376,-78165.747475,-2911.162892
91.805834,-2368.659014,-78757.912229,4749.792088
91.808418,7254.018232,-74316.676577,-1685.410096
91.811002,2368.659014,-80386.365301,7814.174080
91.813586,2072.576638,-75056.882519,7814.174080
91.816170,7105.977043,-76981.417968,5669.106685
91.818754,888.247130,-78313.788664,5669.106685
91.821338,-296.082377,-74760.800142,-306.438199
91.823921,5625.565159,-76685.335591,-2451.505594
91.826504,592.164754,-77425.541533,-1072.533697
91.829087,2368.659014,-79053.994606,8580.269578
91.831670,8734.430116,-72984.305881,1685.410096
91.834253,-592.164754,-80534.406490,13023.623466
91.836836,-5477.523971,-74316.676577,-919.314598
91.839419,-3701.029710,-76093.170838,-11338.213370
91.842002,-5625.565159,-80830.488866,-7048.078582
91.844585,2368.659014,-74020.594200,-14096.157163
91.847168,-3108.864956,-77277.500345,-2757.943793
91.849751,-9030.512492,-79202.035794,153.219100
91.852334,-4885.359217,-75945.129649,5362.668486
91.854917,148.041188,-74760.800142,1838.629195
91.857500,-3701.029710,-78609.871040,-3064.381992
91.860083,-7698.141797,-76389.253214,-8733.488677
91.862666,-5477.523971,-76537.294403,-10112.460574
91.865248,3701.029710,-78017.706287,-6435.202183
91.867831,-2812.782580,-72540.182316,-3524.039291
91.870414,2220.617826,-73872.553012,1532.190996
91.872997,-7846.182985,-77277.500345,4290.134789
91.875580,-4589.276840,-77721.623910,-612.876398
91.878163,-3108.864956,-77129.459156,-3370.820191
91.880746,-6513.812290,-78757.912229,-5515.887586
91.883329,-888.247130,-76685.335591,-9959.241474
91.885912,-3701.029710,-77721.623910,-5056.230287
91.888495,-6217.729913,-80238.324113,2757.943793
91.891078,-3701.029710,-77425.541533,2911.162892
91.893661,296.082377,-75204.923707,-1532.190996
91.896244,-7994.224174,-78905.953417,1838.629195
91.898827,-592.164754,-73132.347070,-11491.432470
91.901410,-5625.565159,-76537.294403,-3370.820191
91.903993,-2368.659014,-74908.841330,-11644.651570
91.906576,5773.606348,-77425.541533,1225.752797
91.909159,7254.018232,-75501.006084,4596.572988
91.911742,-592.164754,-78461.829852,12870.404366
91.914325,-740.205942,-76685.335591,10878.556072
91.916907,5921.647536,-75649.047272,3217.601092
91.919490,2368.659014,-80534.406490,1685.410096
91.922073,5477.523971,-75649.047272,-6588.421283
91.924656,2664.741391,-77277.500345,-1378.971896
91.927237,-2220.617826,-78757.912229,2911.162892
91.929818,8142.265362,-75945.129649,6588.421283
91.932399,-1480.411884,-76981.417968,9959.241474
91.934979,-6957.935855,-79053.994606,9346.365076
91.937560,5625.565159,-78461.829852,-1225.752797
91.940141,-2960.823768,-80534.406490,3524.039291
91.942722,3256.906145,-77425.541533,-2145.067394
91.945303,7550.100608,-77129.459156,3217.601092
91.947883,7402.059420,-77869.665098,8273.831378
91.950464,1332.370696,-79942.241736,11031.775171
91.953045,5477.523971,-75352.964896,5975.544884
91.955626,3256.906145,-77573.582722,5822.325785
91.958207,444.123565,-77573.582722,-153.219100
91.960787,6365.771101,-74316.676577,-2757.943793
91.963368,5329.482782,-77425.541533,-1685.410096
91.965949,-4441.235652,-77277.500345,8120.612279
91.968530,6513.812290,-73428.429446,1225.752797
91.971111,-2516.700203,-79646.159359,13023.623466
91.973691,-6809.894666,-73132.347070,-5669.106685
91.976272,-1480.411884,-76537.294403,-9652.803275
91.978853,1776.494261,-75649.047272,-15628.348159
91.981434,-6661.853478,-76833.376780,-5669.106685
91.984014,-4441.235652,-75352.964896,-3524.039291
91.986595,-7698.141797,-77721.623910,4290.134789
91.989176,-3849.070898,-76241.212026,3830.477490
91.991757,2368.659014,-75204.923707,-612.876398
91.994338,-7846.182985,-78757.912229,-2604.724693
91.996918,-8438.347739,-76093.170838,-9652.803275
91.999499,-7550.100608,-78165.747475,-7967.393179
92.002080,-8142.265362,-76833.376780,-3677.258390
92.004661,-1628.453072,-76389.253214,-612.876398
92.007242,-7105.977043,-75797.088461,3370.820191
92.009822,-6365.771101,-79350.076982,3677.258390
92.012403,-2072.576638,-76685.335591,-2298.286494
92.014984,-1036.288319,-76093.170838,-8733.488677
92.017565,-3552.988522,-78905.953417,-6894.859482
92.020146,-6809.894666,-76537.294403,-7354.516781
92.022726,-888.247130,-75945.129649,-3983.696590
92.025307,-5477.523971,-78905.953417,1838.629195
92.027888,-3552.988522,-74908.841330,153.219100
92.030423,1480.411884,-76981.417968,612.876398
92.032959,-5477.523971,-75501.006084,-3217.601092
92.035494,-4441.235652,-75352.964896,-5056.230287
92.038030,3997.112087,-74612.758954,-14096.157163
92.040565,3701.029710,-79498.118171,2451.505594
92.043101,6365.771101,-74168.635388,4596.572988
92.045637,5921.647536,-75649.047272,12104.308868
92.048172,888.247130,-78905.953417,15781.567259
92.050708,1924.535449,-76685.335591,5669.106685
92.053243,7550.100608,-77869.665098,766.095498
92.055779,740.205942,-78461.829852,-2757.943793
92.058314,3552.988522,-76389.253214,-4290.134789
92.060850,592.164754,-77129.459156,-306.438199
92.063385,444.123565,-78017.706287,7507.735880
92.065921,-1184.329507,-76389.253214,10418.898773
92.068456,6365.771101,-76093.170838,8733.488677
92.070992,-4441.235652,-78017.706287,-1378.971896
92.073527,1776.494261,-79942.241736,-153.219100
92.076063,13175.665768,-72244.099939,-5669.106685
92.078598,3108.864956,-79350.076982,3677.258390
92.081134,0.000000,-75797.088461,3217.601092
92.083669,888.247130,-75352.964896,8120.612279
92.086205,1480.411884,-77425.541533,8427.050478
92.088740,5329.482782,-76241.212026,3677.258390
92.091276,3849.070898,-75501.006084,-612.876398
92.093812,-4589.276840,-79646.159359,0.000000
92.096347,4293.194464,-76833.376780,-153.219100
92.098883,9178.553681,-74168.635388,459.657299
92.101418,-592.164754,-80978.530055,13636.499864
92.103954,-4293.194464,-74316.676577,1225.752797
92.106489,-5625.565159,-76981.417968,-3830.477490
92.109025,-4737.318029,-80386.365301,-9346.365076
92.111560,4885.359217,-75204.923707,-13789.718964
92.114096,-3552.988522,-76241.212026,-6588.421283
92.116631,-10214.842000,-78757.912229,-1532.190996
92.119167,-7105.977043,-75797.088461,2757.943793
92.121702,2812.782580,-75352.964896,1991.848295
92.124238,-4441.235652,-78017.706287,2298.286494
92.126773,-4737.318029,-73428.429446,-7201.297681
92.129309,3701.029710,-76389.253214,-11184.994271
92.131852,3108.864956,-79794.200548,-9806.022374
92.134396,-1184.329507,-72688.223504,-3370.820191
92.136940,-7402.059420,-75352.964896,1838.629195
92.139483,-6217.729913,-77721.623910,3217.601092
92.142027,-1036.288319,-74612.758954,-4290.134789
92.144570,-3997.112087,-76093.170838,-5056.230287
92.147114,-4589.276840,-79350.076982,-7048.078582
92.149658,-4441.235652,-77277.500345,-8733.488677
92.152201,-2072.576638,-77573.582722,-4443.353888
92.154745,-7846.182985,-79794.200548,1991.848295
92.157288,-2812.782580,-75945.129649,-306.438199
92.159832,2220.617826,-76537.294403,1685.410096
92.162376,-592.164754,-77425.541533,-2145.067394
92.164919,-7550.100608,-77277.500345,-3983.696590
92.167463,2812.782580,-75352.964896,-12257.527968
92.170006,4441.235652,-79646.159359,1685.410096
92.172550,7550.100608,-73280.388258,1838.629195
92.175093,5181.441594,-76981.417968,13176.842566
92.177637,-3404.947333,-77721.623910,14096.157163
92.180181,3404.947333,-76685.335591,7354.516781
92.182724,6957.935855,-76981.417968,1991.848295
92.185268,-1184.329507,-78609.871040,-2298.286494
92.187811,4441.235652,-75945.129649,-5515.887586
92.190355,0.000000,-79053.994606,459.657299
92.192899,-3404.947333,-80238.324113,9499.584175
92.195442,11991.336260,-76833.376780,9193.145976
92.197986,5625.565159,-76093.170838,9193.145976
92.200529,-4589.276840,-78313.788664,-1378.971896
92.203073,5477.523971,-78165.747475,1532.190996
92.205617,10658.965565,-76833.376780,-2911.162892
92.208160,1036.288319,-80830.488866,6128.763984
92.210704,4441.235652,-76537.294403,3524.039291
92.213247,3404.947333,-75501.006084,9193.145976
92.215791,-148.041188,-78461.829852,9346.365076
92.218335,6513.812290,-75204.923707,2451.505594
92.220878,6217.729913,-75501.006084,-612.876398
92.223422,0.000000,-79794.200548,-612.876398
92.225965,1924.535449,-75649.047272,1532.190996
92.228509,5921.647536,-75945.129649,1991.848295
92.231052,-3404.947333,-79202.035794,8886.707777
92.233603,-8290.306550,-72688.223504,-3830.477490
92.236154,-3552.988522,-78313.788664,-6281.983084
92.238704,0.000000,-78461.829852,-11031.775171
92.241255,2072.576638,-74020.594200,-9959.241474
92.243805,-6217.729913,-78757.912229,-4596.572988
92.246356,-9474.636058,-76833.376780,612.876398
92.248906,2960.823768,-75945.129649,1685.410096
92.251457,-592.164754,-75649.047272,-766.095498
92.254007,-6513.812290,-78905.953417,-459.657299
92.256558,-5181.441594,-74316.676577,-11184.994271
92.259109,-7402.059420,-76981.417968,-8580.269578
92.261659,-3849.070898,-80386.365301,-919.314598
92.264210,-6513.812290,-75204.923707,-612.876398
92.266760,-8882.471304,-80830.488866,7814.174080
92.269311,-3849.070898,-79646.159359,459.657299
92.271861,-1924.535449,-74020.594200,-1991.848295
92.274412,-5625.565159,-78461.829852,-5822.325785
92.276963,-2072.576638,-76981.417968,-9499.584175
92.279513,-740.205942,-74612.758954,-9499.584175
92.282064,-4441.235652,-77869.665098,-2145.067394
92.284614,-5477.523971,-76537.294403,-1838.629195
92.287165,2072.576638,-74612.758954,919.314598
92.289715,-3552.988522,-75797.088461,-766.095498
92.292266,-5625.565159,-76981.417968,-2757.943793
92.294816,-296.082377,-74316.676577,-10418.898773
92.297367,3404.947333,-80386.365301,-2298.286494
92.299918,6661.853478,-76685.335591,3217.601092
92.302468,8142.265362,-74760.800142,7507.735880
92.305019,-4589.276840,-80830.488866,19305.606550
92.307569,740.205942,-74908.841330,5362.668486
92.310120,5921.647536,-78017.706287,6741.640382
92.312670,5033.400406,-76241.212026,-5822.325785
92.315221,-2368.659014,-77573.582722,-1532.190996
92.317771,4441.235652,-75945.129649,-4749.792088
92.320322,-1480.411884,-78313.788664,7814.174080
92.322873,2220.617826,-74908.841330,7507.735880
92.325423,7698.141797,-77425.541533,11184.994271
92.327974,-2664.741391,-78165.747475,1685.410096
92.330524,0.000000,-79053.994606,5056.230287
92.333075,6809.894666,-78165.747475,-3217.601092
92.335630,2368.659014,-79053.994606,4749.792088
92.338186,5033.400406,-77721.623910,4443.353888
92.340742,5625.565159,-75056.882519,7048.078582
92.343297,1332.370696,-79498.118171,9499.584175
92.345853,4885.359217,-76389.253214,4749.792088
92.348408,5033.400406,-75501.006084,919.314598
92.350964,1776.494261,-78165.747475,-1685.410096
92.353519,2072.576638,-76093.170838,2604.724693
92.356075,5477.523971,-75797.088461,-306.438199
92.358630,-3701.029710,-78905.953417,9499.584175
92.361186,-8882.471304,-73280.388258,-5669.106685
92.363741,-3552.988522,-79202.035794,-4903.011187
92.366297,-444.123565,-77425.541533,-11491.432470
92.368853,148.041188,-75204.923707,-9039.926876
92.371408,-3849.070898,-77425.541533,-5056.230287
92.373964,-4441.235652,-77869.665098,919.314598
92.376519,-2072.576638,-76833.376780,4749.792088
92.379075,2516.700203,-75204.923707,-3370.820191
92.381630,-7254.018232,-79053.994606,-306.438199
92.384186,-6661.853478,-75056.882519,-8120.612279
92.386741,3997.112087,-77721.623910,-8580.269578
92.389297,-1480.411884,-80830.488866,1532.190996
92.391853,9326.594869,-74020.594200,-4443.353888
92.394408,2812.782580,-79350.076982,6281.983084
92.396964,-2960.823768,-76389.253214,-2145.067394
92.399519,740.205942,-78313.788664,-1838.629195
92.402075,-1480.411884,-75945.129649,-9959.241474
92.404630,-8882.471304,-78609.871040,-4136.915689
92.407186,-592.164754,-75352.964896,-8580.269578
92.409741,-2960.823768,-76389.253214,-2604.724693
92.412297,-5625.565159,-78313.788664,1225.752797
92.414852,1776.494261,-76093.170838,2145.067394
92.417408,-296.082377,-75797.088461,-3983.696590
92.419964,-7402.059420,-78757.912229,-1685.410096
92.422519,4293.194464,-75204.923707,-11491.432470
92.425075,7994.224174,-77721.623910,1838.629195
92.427630,3108.864956,-76685.335591,5209.449386
92.430186,5181.441594,-75797.088461,9652.803275
92.432741,-4293.194464,-78461.829852,15015.471761
92.435297,148.041188,-78461.829852,3830.477490
92.437856,6069.688724,-77573.582722,2451.505594
92.440416,5033.400406,-75797.088461,-8120.612279
92.442975,-1332.370696,-79498.118171,1225.752797
92.445535,2516.700203,-75352.964896,-1532.190996
92.448094,2516.700203,-78313.788664,8427.050478
92.450653,2516.700203,-74612.758954,7201.297681
92.453213,2072.576638,-73132.347070,1838.629195
92.455772,-9918.759623,-78757.912229,1225.752797
92.458332,-296.082377,-75945.129649,-1838.629195
92.460891,4885.359217,-74464.717765,-3064.381992
92.463451,3256.906145,-79498.118171,5669.106685
92.466010,1480.411884,-76537.294403,6435.202183
92.468569,1480.411884,-77425.541533,8580.269578
92.471129,3701.029710,-77425.541533,4290.134789
92.473688,2072.576638,-77721.623910,5669.106685
92.476248,7994.224174,-74464.717765,-3677.258390
92.478807,444.123565,-78609.871040,3983.696590
92.481367,-1036.288319,-75945.129649,1072.533697
92.483926,1332.370696,-74464.717765,3983.696590
92.486485,-10955.047942,-75945.129649,-2298.286494
92.489045,-3849.070898,-76685.335591,-7507.735880
92.491604,5773.606348,-75649.047272,-12717.185267
92.494164,-2516.700203,-77129.459156,-6894.859482
92.496723,-8882.471304,-76537.294403,-2911.162892
92.499282,-5181.441594,-74612.758954,-1072.533697
92.501842,-2812.782580,-77721.623910,2145.067394
92.504401,-3108.864956,-77129.459156,1072.533697
92.506961,-740.205942,-75797.088461,-5822.325785
92.509520,-8290.306550,-78461.829852,-3370.820191
92.512080,0.000000,-76537.294403,-10572.117872
92.514639,3701.029710,-77869.665098,153.219100
92.517198,2368.659014,-78461.829852,-2604.724693
92.519758,-9770.718434,-76389.253214,6435.202183
92.522317,-2664.741391,-74020.594200,-5209.449386
92.524877,-4737.318029,-77573.582722,-3677.258390
92.527436,-5329.482782,-75945.129649,-8886.707777
92.529996,-2368.659014,-77129.459156,-6128.763984
92.532555,-2812.782580,-77721.623910,-7201.297681
92.535114,-5921.647536,-76537.294403,-919.314598
92.537674,9622.677246,-75797.088461,-3524.039291
92.540237,-5625.565159,-78313.788664,5056.230287
92.542800,-740.205942,-74612.758954,-4290.134789
92.545363,-3256.906145,-78017.706287,-3677.258390
92.547926,1480.411884,-77721.623910,-6281.983084
92.550489,7846.182985,-77277.500345,3370.820191
92.553052,4885.359217,-74168.635388,3217.601092
92.555615,-148.041188,-80238.324113,17773.415554
92.558178,-444.123565,-76093.170838,6588.421283
92.560741,7105.977043,-76685.335591,4290.134789
92.563304,5329.482782,-77277.500345,-4903.011187
92.565867,-2812.782580,-76981.417968,153.219100
92.568430,5033.400406,-76093.170838,-4290.134789
92.570993,6069.688724,-78461.829852,5822.325785
92.573556,5181.441594,-76685.335591,5822.325785
92.576119,4885.359217,-72984.305881,7507.735880
92.578682,8142.265362,-78757.912229,-766.095498
92.581245,-2664.741391,-75352.964896,1685.410096
92.583808,5625.565159,-76833.376780,-2145.067394
92.586371,2664.741391,-76537.294403,3217.601092
92.588934,444.123565,-77277.500345,3677.258390
92.591497,1924.535449,-75945.129649,8733.488677
92.594060,1628.453072,-77721.623910,3370.820191
92.596623,3997.112087,-77869.665098,6435.202183
92.599186,9178.553681,-75056.882519,-2757.943793
92.601749,-296.082377,-78609.871040,5515.887586
92.604312,2516.700203,-76241.212026,-459.657299
92.606875,148.041188,-74760.800142,6281.983084
92.609438,-9770.718434,-76093.170838,-2911.162892
92.612001,-4145.153275,-77425.541533,-6588.421283
92.614564,4145.153275,-75056.882519,-12104.308868
92.617127,-1332.370696,-77277.500345,-7814.174080
92.619690,-8734.430116,-76093.170838,-4443.353888
92.622253,-3256.906145,-75204.923707,306.438199
92.624816,-2220.617826,-77277.500345,1072.533697
92.627379,-592.164754,-76537.294403,0.000000
92.629942,1036.288319,-75797.088461,-5669.106685
92.632505,-740.205942,-77573.582722,-5362.668486
92.635068,5921.647536,-76685.335591,-10265.679673
92.637631,0.000000,-77573.582722,-2757.943793
92.640194,-2220.617826,-79202.035794,-1532.190996
92.642760,-6957.935855,-75056.882519,459.657299
92.645326,-3256.906145,-76093.170838,-1685.410096
92.647892,-6661.853478,-75649.047272,-4290.134789
92.650458,-4737.318029,-76093.170838,-9652.803275
92.653024,-3108.864956,-77869.665098,-5975.544884
92.655590,-5625.565159,-78017.706287,-5515.887586
92.658156,1332.370696,-75797.088461,-2757.943793
92.660721,740.205942,-77425.541533,-766.095498
92.663287,-4737.318029,-77869.665098,1532.190996
92.665853,-3849.070898,-76093.170838,-2145.067394
92.668419,1480.411884,-77277.500345,-4596.572988
92.670985,5033.400406,-79053.994606,-1532.190996
92.673551,7846.182985,-75204.923707,2604.724693
92.676117,3404.947333,-77721.623910,7814.174080
92.678683,2368.659014,-78461.829852,14096.157163
92.681248,1184.329507,-74168.635388,5975.544884
92.683814,6661.853478,-78017.706287,4443.353888
92.686380,2812.782580,-77129.459156,-3370.820191
92.688946,1036.288319,-75352.964896,-1991.848295
92.691512,888.247130,-77277.500345,-1225.752797
92.694078,2516.700203,-78757.912229,5362.668486
92.696644,4293.194464,-73576.470635,5669.106685
92.699210,-296.082377,-75056.882519,5669.106685
92.701776,-8734.430116,-79498.118171,2451.505594
92.704341,8438.347739,-73872.553012,-3830.477490
92.706907,-1184.329507,-76833.376780,2145.067394
92.709473,-444.123565,-80090.282924,7048.078582
92.712039,6513.812290,-75352.964896,4443.353888
92.714605,2960.823768,-76833.376780,8273.831378
92.717171,2072.576638,-78757.912229,5209.449386
92.719737,5625.565159,-77277.500345,2451.505594
92.722303,3849.070898,-76537.294403,919.314598
92.724866,-2072.576638,-78905.953417,4749.792088
92.727433,3701.029710,-76537.294403,3677.258390
92.730001,-5773.606348,-76685.335591,3064.381992
92.732568,-10658.965565,-75945.129649,-5362.668486
92.735136,-740.205942,-76833.376780,-9346.365076
92.737703,888.247130,-75797.088461,-11031.775171
92.740271,-5181.441594,-76833.376780,-4290.134789
92.742838,-8142.265362,-75501.006084,-3524.039291
92.745406,-3849.070898,-76685.335591,612.876398
92.747973,-3404.947333,-76537.294403,1532.190996
92.750541,148.041188,-74612.758954,-3677.258390
92.753108,-7254.018232,-77425.541533,-7354.516781
92.755676,-12287.418637,-76537.294403,-5056.230287
92.758243,2812.782580,-76537.294403,-5822.325785
92.760810,-2516.700203,-78017.706287,-2757.943793
92.763378,1924.535449,-79794.200548,5515.887586
92.765945,2516.700203,-77721.623910,-2757.943793
92.768513,-6661.853478,-81570.694808,4596.572988
92.771080,-8290.306550,-77277.500345,-4903.011187
92.773648,-2368.659014,-78017.706287,-5822.325785
92.776215,-2220.617826,-77573.582722,-7967.393179
92.778783,-7994.224174,-76241.212026,-2145.067394
92.781350,1776.494261,-75352.964896,-2757.943793
92.783918,-4589.276840,-76241.212026,1072.533697
92.786485,-3701.029710,-75945.129649,-1378.971896
92.789053,-1184.329507,-74612.758954,-7354.516781
92.791620,1332.370696,-80090.282924,-1378.971896
92.794187,6513.812290,-76537.294403,3064.381992
92.796755,7550.100608,-74168.635388,4596.572988
92.799322,-3404.947333,-81718.735997,16854.100956
92.801890,3108.864956,-75352.964896,4903.011187
92.804457,8586.388927,-76685.335591,6281.983084
92.807025,3404.947333,-77425.541533,-3370.820191
92.809592,-1924.535449,-77573.582722,766.095498
92.812160,4737.318029,-75352.964896,-4136.915689
92.814727,3997.112087,-79794.200548,7660.954980
92.817295,5033.400406,-74316.676577,5056.230287
92.819862,1776.494261,-74020.594200,5515.887586
92.822429,-4145.153275,-79350.076982,2298.286494
92.824997,5033.400406,-74760.800142,-2145.067394
92.827565,7846.182985,-75352.964896,-919.314598
92.830134,-1480.411884,-78757.912229,5056.230287
92.832703,2664.741391,-75649.047272,4290.134789
92.835271,7550.100608,-74908.841330,4443.353888
92.837840,888.247130,-79053.994606,8580.269578
92.840408,5329.482782,-75945.129649,1225.752797
92.842977,6217.729913,-77129.459156,3370.820191
92.845545,-1480.411884,-79350.076982,1532.190996
92.848114,2368.659014,-77129.459156,5209.449386
92.850682,-4293.194464,-75501.006084,1532.190996
92.853251,-10362.883188,-76537.294403,-7354.516781
92.855819,-2812.782580,-76537.294403,-8273.831378
92.858388,2072.576638,-74316.676577,-13636.499864
92.860956,-7254.018232,-78313.788664,-2298.286494
92.863525,-9622.677246,-76093.170838,-2604.724693
92.866094,-1036.288319,-76093.170838,2145.067394
92.868662,-3256.906145,-78461.829852,-459.657299
92.871231,-2220.617826,-75797.088461,-1532.190996
92.873799,592.164754,-75352.964896,-9959.241474
92.876368,-296.082377,-79794.200548,-5056.230287
92.878936,0.000000,-73280.388258,-7967.393179
92.881505,6661.853478,-75056.882519,-3064.381992
92.884073,-5773.606348,-79498.118171,1532.190996
92.886642,-2072.576638,-74316.676577,-2145.067394
92.889210,-3701.029710,-79350.076982,-1991.848295
92.891779,-5477.523971,-76981.417968,-4290.134789
92.894347,-2516.700203,-76685.335591,-6588.421283
92.896916,-1628.453072,-76833.376780,-6894.859482
92.899485,-6957.935855,-80386.365301,-2451.505594
92.902053,-296.082377,-76537.294403,1225.752797
92.904622,148.041188,-75204.923707,-3677.258390
92.907190,-7550.100608,-78757.912229,2298.286494
92.909759,4885.359217,-74020.594200,-10112.460574
92.912327,7402.059420,-79202.035794,2145.067394
92.914896,4145.153275,-75501.006084,2757.943793
92.917464,5773.606348,-75056.882519,7660.954980
92.920033,-4441.235652,-79646.159359,14096.157163
92.922601,740.205942,-74612.758954,3830.477490
92.925170,7254.018232,-76389.253214,2298.286494
92.927738,6809.894666,-75501.006084,-4596.572988
92.930307,-1628.453072,-78609.871040,2145.067394
92.932876,4293.194464,-74168.635388,-2298.286494
92.935444,9326.594869,-78905.953417,7814.174080
92.938013,1628.453072,-75945.129649,8427.050478
92.940581,2368.659014,-74020.594200,153.219100
92.943150,4885.359217,-81422.653620,3064.381992
92.945718,5773.606348,-76093.170838,1685.410096
92.948287,8882.471304,-75649.047272,3064.381992
92.950855,296.082377,-82310.900750,7814.174080
92.953424,1628.453072,-75945.129649,7814.174080
92.955993,8142.265362,-75501.006084,5362.668486
92.958561,1776.494261,-79202.035794,5056.230287
92.961130,2220.617826,-77721.623910,3677.258390
92.963699,296.082377,-75501.006084,919.314598
92.966267,444.123565,-79646.159359,3370.820191
92.968836,-4737.318029,-76241.212026,5669.106685
92.971405,-7105.977043,-71355.852809,-10878.556072
92.973973,-2368.659014,-80386.365301,-5362.668486
92.976542,296.082377,-75204.923707,-14249.376263
92.979110,-1184.329507,-76241.212026,-2911.162892
92.981679,-7846.182985,-76833.376780,-4903.011187
92.984248,-7994.224174,-76981.417968,4443.353888
92.986816,3404.947333,-74168.635388,-2298.286494
92.989385,148.041188,-76685.335591,-1072.533697
92.991954,-10658.965565,-77573.582722,-7660.954980
92.994522,-9474.636058,-75945.129649,-6128.763984
92.997091,-1332.370696,-76389.253214,-8273.831378
92.999660,-296.082377,-74760.800142,-1991.848295
93.002228,-2368.659014,-74760.800142,-1838.629195
93.004797,-3404.947333,-76685.335591,-3524.039291
93.007365,-10362.883188,-76537.294403,-459.657299
93.009934,2516.700203,-75352.964896,-10265.679673
93.012503,-4589.276840,-80090.282924,-2298.286494
93.015071,-5329.482782,-75501.006084,-7048.078582
93.017640,740.205942,-77277.500345,-4443.353888
93.020209,-888.247130,-76981.417968,-459.657299
93.022777,-5477.523971,-77277.500345,2604.724693
93.025346,2516.700203,-75797.088461,-5975.544884
93.027915,1036.288319,-78461.829852,-1685.410096
93.030483,5921.647536,-78017.706287,4443.353888
93.033052,8142.265362,-74020.594200,2757.943793
93.035622,1924.535449,-79202.035794,13330.061665
93.038191,-1184.329507,-76833.376780,9346.365076
93.040760,7994.224174,-74020.594200,1532.190996
93.043329,2516.700203,-79498.118171,3524.039291
93.045899,3997.112087,-74908.841330,-4443.353888
93.048468,4293.194464,-76685.335591,-459.657299
93.051037,-3108.864956,-76833.376780,4136.915689
93.053606,-9178.553681,-78609.871040,11644.651570
93.056175,-740.205942,-76241.212026,3217.601092
93.058745,-888.247130,-79646.159359,919.314598
93.061314,-1628.453072,-74168.635388,3370.820191
93.063883,7402.059420,-71207.811620,-4903.011187
93.066452,-1480.411884,-78609.871040,3983.696590
93.069022,0.000000,-74760.800142,4290.134789
93.071591,7550.100608,-72244.099939,306.438199
93.074160,2072.576638,-79053.994606,5822.325785
93.076729,8290.306550,-76389.253214,2604.724693
93.079298,3701.029710,-78017.706287,919.314598
93.081868,740.205942,-80830.488866,4290.134789
93.084437,-1628.453072,-76093.170838,5515.887586
93.087006,-3404.947333,-72836.264693,-4903.011187
93.089575,-8586.388927,-81570.694808,-6588.421283
93.092144,1332.370696,-76389.253214,-11951.089769
93.094714,4293.194464,-75501.006084,-9652.803275
93.097283,-7550.100608,-80238.324113,-1685.410096
93.099852,-6365.771101,-75501.006084,-612.876398
93.102421,-888.247130,-75945.129649,919.314598
93.104991,-4293.194464,-78165.747475,1685.410096
93.107560,-1036.288319,-74612.758954,-5975.544884
93.110129,-592.164754,-75797.088461,-10725.336972
93.112698,-6809.894666,-77721.623910,-8120.612279
93.115267,-3849.070898,-74908.841330,-919.314598
93.117837,740.205942,-72836.264693,-5056.230287
93.120406,-13323.706956,-81866.777185,4136.915689
93.122975,-5477.523971,-74020.594200,-3677.258390
93.125544,-296.082377,-76389.253214,-7354.516781
93.128114,-7402.059420,-78905.953417,-2911.162892
93.130683,-2516.700203,-74908.841330,-10725.336972
93.133252,-6365.771101,-77277.500345,-5209.449386
93.135784,-6957.935855,-78757.912229,306.438199
93.138316,1036.288319,-73428.429446,-4290.134789
93.140848,-740.205942,-75945.129649,-1072.533697
93.143379,-2072.576638,-80238.324113,-1532.190996
93.145911,12583.501014,-75056.882519,-1072.533697
93.148443,4737.318029,-76537.294403,5822.325785
93.150975,-444.123565,-79053.994606,9499.584175
93.153507,5181.441594,-75797.088461,9652.803275
93.156039,2960.823768,-74908.841330,2911.162892
93.158571,740.205942,-79202.035794,7048.078582
93.161103,7402.059420,-73280.388258,-6894.859482
93.163634,-888.247130,-78017.706287,2145.067394
93.166166,-5181.441594,-77573.582722,1072.533697
93.168698,-3701.029710,-75352.964896,4749.792088
93.171230,444.123565,-78313.788664,5669.106685
93.173762,8438.347739,-79646.159359,4749.792088
93.176294,7254.018232,-77425.541533,5209.449386
93.178826,9474.636058,-77869.665098,2604.724693
93.181358,2516.700203,-80534.406490,7048.078582
93.183889,4737.318029,-76241.212026,4749.792088
93.186421,3108.864956,-76833.376780,2298.286494
93.188953,296.082377,-76685.335591,6128.763984
93.191485,8290.306550,-74612.758954,306.438199
93.194017,2812.782580,-77869.665098,5975.544884
93.196549,1036.288319,-75649.047272,2298.286494
93.199081,2072.576638,-76537.294403,5362.668486
93.201612,-7402.059420,-74612.758954,-6281.983084
93.204144,-7994.224174,-79053.994606,-8886.707777
93.206676,5773.606348,-75352.964896,-13942.938064
93.209208,1924.535449,-76093.170838,-7201.297681
93.211740,-6661.853478,-78165.747475,-1225.752797
93.214272,-4145.153275,-75945.129649,-612.876398
93.216804,-6957.935855,-78313.788664,5362.668486
93.219336,-444.123565,-76833.376780,-2757.943793
93.221867,2072.576638,-75352.964896,-2757.943793
93.224399,-14211.954086,-77721.623910,-9959.241474
93.226931,-7846.182985,-76981.417968,-10265.679673
93.229463,3849.070898,-74908.841330,-3677.258390
93.231995,-8882.471304,-74020.594200,-3064.381992
93.234527,-11547.212695,-80534.406490,2145.067394
93.237067,-4885.359217,-71651.935186,-7507.735880
93.239607,-5477.523971,-77869.665098,-3524.039291
93.242147,-2368.659014,-77721.623910,-8886.707777
93.244686,-2368.659014,-73872.553012,-8580.269578
93.247226,-4589.276840,-77721.623910,-3830.477490
93.249766,-6069.688724,-77573.582722,-612.876398
93.252306,1332.370696,-74908.841330,-2145.067394
93.254846,-6217.729913,-78165.747475,1072.533697
93.257386,888.247130,-77277.500345,-3983.696590
93.259926,9326.594869,-76685.335591,2757.943793
93.262466,2812.782580,-77721.623910,5515.887586
93.265006,-740.205942,-79942.241736,14249.376263
93.267546,3404.947333,-73428.429446,4136.915689
93.270086,5033.400406,-79498.118171,7967.393179
93.272626,4885.359217,-77129.459156,-1225.752797
93.275166,5477.523971,-75945.129649,-1532.190996
93.277706,-4589.276840,-78905.953417,2298.286494
93.280245,4145.153275,-77425.541533,3983.696590
93.282785,4737.318029,-73576.470635,1072.533697
93.285325,3552.988522,-76389.253214,5056.230287
93.287865,6513.812290,-74316.676577,919.314598
93.290405,6513.812290,-75352.964896,1838.629195
93.292945,3256.906145,-76537.294403,1072.533697
93.295485,1184.329507,-76093.170838,3983.696590
93.298025,4589.276840,-74612.758954,766.095498
93.300565,-1332.370696,-77425.541533,6128.763984
93.303105,2220.617826,-75945.129649,3524.039291
93.305645,7994.224174,-77425.541533,5209.449386
93.308185,1924.535449,-78461.829852,4749.792088
93.310725,1332.370696,-77425.541533,6435.202183
93.313264,-3701.029710,-77277.500345,612.876398
93.315804,-11695.253884,-77869.665098,-6435.202183
93.318344,-2960.823768,-76981.417968,-10725.336972
93.320884,2812.782580,-76093.170838,-14709.033562
93.323424,-7994.224174,-79498.118171,-153.219100
93.325964,-7402.059420,-75945.129649,-766.095498
93.328504,-2220.617826,-76685.335591,1991.848295
93.331044,-6365.771101,-76981.417968,612.876398
93.333584,-444.123565,-76093.170838,-2604.724693
93.336124,-5329.482782,-76241.212026,-9806.022374
93.338671,-3404.947333,-77277.500345,-8733.488677
93.341218,2072.576638,-72540.182316,-9346.365076
93.343765,5329.482782,-73428.429446,612.876398
93.346312,-2516.700203,-78757.912229,-2298.286494
93.348859,-6661.853478,-76981.417968,306.438199
93.351407,-3552.988522,-76981.417968,-4290.134789
93.353954,-2664.741391,-78609.871040,-5822.325785
93.356501,-3108.864956,-76241.212026,-7201.297681
93.359048,-740.205942,-76241.212026,-3830.477490
93.361595,-7105.977043,-80090.282924,1072.533697
93.364142,-296.082377,-76093.170838,-766.095498
93.366689,-1924.535449,-76241.212026,-1991.848295
93.369236,-1332.370696,-79646.159359,-2757.943793
93.371784,12435.459826,-75649.047272,1685.410096
93.374331,4293.194464,-75501.006084,6128.763984
93.376878,-296.082377,-77721.623910,10418.898773
93.379425,1776.494261,-74760.800142,7814.174080
93.381972,1036.288319,-76241.212026,3217.601092
93.384519,2220.617826,-78313.788664,1838.629195
93.387066,4737.318029,-73872.553012,-3830.477490
93.389613,-2368.659014,-75797.088461,-306.438199
93.392160,7698.141797,-77573.582722,5362.668486
93.394708,4145.153275,-76833.376780,9652.803275
93.397255,12731.542202,-73872.553012,612.876398
93.399802,-4293.194464,-82755.024316,5362.668486
93.402349,6365.771101,-75501.006084,1532.190996
93.404896,6069.688724,-76685.335591,4749.792088
93.407443,444.123565,-79794.200548,6894.859482
93.409990,1776.494261,-75649.047272,3524.039291
93.412537,2812.782580,-75797.088461,5056.230287
93.415085,4293.194464,-77721.623910,5056.230287
93.417632,2368.659014,-76241.212026,4290.134789
93.420179,2368.659014,-75501.006084,306.438199
93.422726,-5033.400406,-81126.571243,7967.393179
93.425273,-7105.977043,-72540.182316,-6435.202183
93.427820,-4293.194464,-77129.459156,-10418.898773
93.430367,-4737.318029,-79053.994606,-9806.022374
93.432914,3256.906145,-72540.182316,-12563.966167
93.435462,-4293.194464,-77869.665098,-766.095498
93.438009,-11843.295072,-77721.623910,1072.533697
93.440561,-148.041188,-75501.006084,1072.533697
93.443114,740.205942,-76685.335591,-2298.286494
93.445667,-1628.453072,-77277.500345,-2145.067394
93.448219,-3108.864956,-75352.964896,-13023.623466
93.450772,-3997.112087,-76389.253214,-5975.544884
93.453325,-2220.617826,-75945.129649,-6435.202183
93.455877,-1628.453072,-71503.893997,-3677.258390
93.458430,-7698.141797,-76241.212026,-6741.640382
93.460983,-14211.954086,-76537.294403,-459.657299
93.463535,-1480.411884,-72540.182316,-9806.022374
93.466088,-4441.235652,-79053.994606,-3524.039291
93.468641,-4293.194464,-77129.459156,-6128.763984
93.471193,1036.288319,-74908.841330,-5056.230287
93.473746,-5329.482782,-79053.994606,919.314598
93.476299,-5329.482782,-76981.417968,153.219100
93.478851,4589.276840,-76093.170838,-6128.763984
93.481404,7994.224174,-78461.829852,1532.190996
93.483956,3849.070898,-77573.582722,9346.365076
93.486509,6365.771101,-73576.470635,5975.544884
93.489062,-3404.947333,-80534.406490,14555.814462
93.491614,1036.288319,-75204.923707,2757.943793
93.494167,6513.812290,-76537.294403,2911.162892
93.496720,2220.617826,-77869.665098,-2911.162892
93.499272,-2368.659014,-75797.088461,459.657299
93.501825,-2664.741391,-75945.129649,612.876398
93.504378,2812.782580,-78609.871040,7967.393179
93.506930,-1480.411884,-77869.665098,6435.202183
93.509483,-1628.453072,-76833.376780,2911.162892
93.512036,3849.070898,-80238.324113,1991.848295
93.514588,740.205942,-74908.841330,3217.601092
93.517141,2812.782580,-75204.923707,2911.162892
93.519694,0.000000,-78165.747475,4903.011187
93.522246,-1480.411884,-74168.635388,4596.572988
93.524799,9030.512492,-73280.388258,-919.314598
93.527352,888.247130,-79794.200548,7048.078582
93.529904,3108.864956,-73724.511823,-1072.533697
93.532457,1776.494261,-78017.706287,9806.022374
93.535010,-8290.306550,-77425.541533,-1225.752797
93.537562,-9622.677246,-79053.994606,-7201.297681
93.540115,1332.370696,-75945.129649,-13942.938064
93.542672,-888.247130,-77573.582722,-8733.488677
93.545228,-5033.400406,-76537.294403,-3524.039291
93.547785,-4441.235652,-75649.047272,153.219100
93.550341,-5477.523971,-78905.953417,3830.477490
93.552898,148.041188,-76093.170838,306.438199
93.555454,1924.535449,-75797.088461,-3677.258390
93.558011,-7846.182985,-79350.076982,-6894.859482
93.560567,-6217.729913,-72688.223504,-11951.089769
93.563124,-7402.059420,-76833.376780,-2145.067394
93.565681,-148.041188,-74612.758954,-4443.353888
93.568237,-5625.565159,-78017.706287,1991.848295
93.570794,-3256.906145,-75204.923707,-4749.792088
93.573350,-4885.359217,-79053.994606,-2911.162892
93.575907,-2960.823768,-76537.294403,-7660.954980
93.578463,-1036.288319,-77129.459156,-4903.011187
93.581020,-7105.977043,-79202.035794,-2604.724693
93.583576,-3552.988522,-74612.758954,-3983.696590
93.586133,-3849.070898,-76537.294403,-153.219100
93.588690,-444.123565,-76093.170838,-7814.174080
93.591246,6069.688724,-77573.582722,3370.820191
93.593803,8882.471304,-74168.635388,1072.533697
93.596359,0.000000,-79053.994606,13483.280765
93.598916,3849.070898,-76241.212026,6894.859482
93.601472,7105.977043,-74908.841330,5975.544884
93.604029,3404.947333,-78165.747475,-153.219100
93.606585,2960.823768,-76093.170838,-2145.067394
93.609142,3552.988522,-76537.294403,-1072.533697
93.611699,5773.606348,-78313.788664,3370.820191
93.614255,11399.171507,-74760.800142,2604.724693
93.616812,14952.160028,-77129.459156,8273.831378
93.619368,4441.235652,-79350.076982,2145.067394
93.621925,5773.606348,-75352.964896,5515.887586
93.624481,6217.729913,-78609.871040,3983.696590
93.627038,3404.947333,-78905.953417,6435.202183
93.629594,2220.617826,-74760.800142,1685.410096
93.632151,2960.823768,-76685.335591,4596.572988
93.634707,3256.906145,-80534.406490,4443.353888
93.637264,6365.771101,-74316.676577,3677.258390
93.639821,7105.977043,-77573.582722,1838.629195
93.642377,-4589.276840,-78609.871040,10418.898773
93.644937,-5773.606348,-72244.099939,-5362.668486
93.647497,-8586.388927,-79053.994606,-8886.707777
93.650057,-3256.906145,-78461.829852,-12257.527968
93.652617,5921.647536,-74760.800142,-12870.404366
93.655177,-6217.729913,-79646.159359,-2757.943793
93.657737,-11251.130318,-77573.582722,3830.477490
93.660297,-2072.576638,-75352.964896,2911.162892
93.662857,3997.112087,-78017.706287,919.314598
93.665417,-4441.235652,-78165.747475,-1991.848295
93.667977,-6069.688724,-75649.047272,-10572.117872
93.670537,-2516.700203,-80978.530055,-7201.297681
93.673097,-2664.741391,-77277.500345,1072.533697
93.675658,888.247130,-74612.758954,-3064.381992
93.678218,-8438.347739,-80830.488866,3217.601092
93.680778,-7698.141797,-75945.129649,-3064.381992
93.683338,1036.288319,-74168.635388,-6741.640382
93.685898,-3552.988522,-78313.788664,-8886.707777
93.688458,-9474.636058,-75945.129649,-4596.572988
93.691018,-592.164754,-74908.841330,-3524.039291
93.693578,-3849.070898,-79202.035794,-612.876398
93.696138,-5033.400406,-76389.253214,-1991.848295
93.698698,6513.812290,-75797.088461,-2298.286494
93.701258,8734.430116,-78165.747475,3064.381992
93.703818,888.247130,-75649.047272,9806.022374
93.706378,1924.535449,-76389.253214,7354.516781
93.708938,444.123565,-79202.035794,10418.898773
93.711498,1924.535449,-74020.594200,1532.190996
93.714058,8438.347739,-77869.665098,1225.752797
93.716618,444.123565,-77277.500345,-2757.943793
93.719178,-3701.029710,-75797.088461,1532.190996
93.721738,9622.677246,-75797.088461,153.219100
93.724298,0.000000,-77129.459156,10265.679673
93.726858,-3997.112087,-78017.706287,5822.325785
93.729418,7698.141797,-76093.170838,-1225.752797
93.731978,-2072.576638,-80682.447678,8427.050478
93.734538,7994.224174,-74908.841330,1838.629195
93.737098,3997.112087,-77869.665098,5209.449386
93.739658,-1480.411884,-78757.912229,6741.640382
93.742218,3552.988522,-74168.635388,612.876398
93.744778,5921.647536,-78165.747475,5056.230287
93.747301,888.247130,-76981.417968,2604.724693
93.749829,3701.029710,-76389.253214,5362.668486
93.752356,-6365.771101,-73132.347070,-3524.039291
93.754883,-10362.883188,-78165.747475,-7660.954980
93.757411,-4293.194464,-77573.582722,-10878.556072
93.759938,5329.482782,-74612.758954,-16700.881856
93.762465,-9326.594869,-79646.159359,612.876398
93.764993,-7550.100608,-74316.676577,-5515.887586
93.767520,-4589.276840,-78165.747475,7354.516781
93.770047,-2072.576638,-77869.665098,-1225.752797
93.772575,-2664.741391,-75352.964896,-1532.190996
93.775102,10955.047942,-75945.129649,-9039.926876
93.777629,-7550.100608,-78905.953417,-4136.915689
93.780157,7846.182985,-75204.923707,-11031.775171
93.782684,1184.329507,-71355.852809,-4903.011187
93.785212,-8586.388927,-76981.417968,-2911.162892
93.787739,-7402.059420,-75056.882519,-3217.601092
93.790266,-4737.318029,-74760.800142,-7354.516781
93.792794,-5625.565159,-79202.035794,-2451.505594
93.795321,1036.288319,-76093.170838,-7814.174080
93.797848,-3108.864956,-77869.665098,0.000000
93.800376,-7402.059420,-79350.076982,-2604.724693
93.802903,-2960.823768,-76093.170838,-2145.067394
93.805430,6365.771101,-76685.335591,-3064.381992
93.807958,7254.018232,-79350.076982,7048.078582
93.810485,4441.235652,-74464.717765,7201.297681
93.813013,3997.112087,-77425.541533,12563.966167
93.815540,1480.411884,-78757.912229,8886.707777
93.818067,9622.677246,-75797.088461,2757.943793
93.820595,9918.759623,-77277.500345,-3370.820191
93.823122,-1628.453072,-77573.582722,153.219100
93.825649,-6365.771101,-77869.665098,4136.915689
93.828177,7698.141797,-76389.253214,4290.134789
93.830704,-2812.782580,-78757.912229,10265.679673
93.833231,-1332.370696,-74316.676577,612.876398
93.835759,7254.018232,-77277.500345,-153.219100
93.838286,1480.411884,-75352.964896,4596.572988
93.840813,5181.441594,-72836.264693,2298.286494
93.843341,4737.318029,-78757.912229,3524.039291
93.845868,444.123565,-76389.253214,4903.011187
93.848405,6069.688724,-74760.800142,2604.724693
93.850942,5329.482782,-76981.417968,1838.629195
93.853479,1036.288319,-76537.294403,2604.724693
93.856016,-740.205942,-75649.047272,6435.202183
93.858553,-4885.359217,-75204.923707,-6435.202183
93.861090,-10214.842000,-79202.035794,-7354.516781
93.863626,1480.411884,-76981.417968,-13176.842566
93.866163,4737.318029,-75945.129649,-10572.117872
93.868700,-8586.388927,-78609.871040,766.095498
93.871237,-5773.606348,-76685.335591,-459.657299
93.873774,-4441.235652,-76241.212026,2298.286494
93.876311,-3108.864956,-77869.665098,306.438199
93.878848,10362.883188,-75945.129649,-6435.202183
93.881385,-5625.565159,-76685.335591,-9346.365076
93.883922,-8734.430116,-80238.324113,-3217.601092
93.886458,-2812.782580,-76093.170838,-3370.820191
93.888995,-2072.576638,-76685.335591,0.000000
93.891532,-8882.471304,-80830.488866,-306.438199
93.894069,-4441.235652,-74464.717765,-7507.735880
93.896606,-6957.935855,-75797.088461,-3983.696590
93.899143,-3849.070898,-77277.500345,-7660.954980
93.901680,1628.453072,-75056.882519,-5975.544884
93.904217,-6069.688724,-75204.923707,-7814.174080
93.906754,-10214.842000,-78609.871040,3217.601092
93.909291,5329.482782,-73428.429446,-9346.365076
93.911827,11103.089130,-77721.623910,4596.572988
93.914364,4885.359217,-76241.212026,8120.612279
93.916901,4737.318029,-75056.882519,8120.612279
93.919438,-4737.318029,-79350.076982,15168.690860
93.921975,1036.288319,-75352.964896,2145.067394
93.924512,5477.523971,-75945.129649,1991.848295
93.927049,4293.194464,-76981.417968,-4903.011187
93.929586,1036.288319,-76685.335591,919.314598
93.932123,444.123565,-76685.335591,153.219100
93.934659,4737.318029,-79053.994606,8427.050478
93.937196,-1628.453072,-76241.212026,8886.707777
93.939733,6513.812290,-78165.747475,1378.971896
93.942270,4293.194464,-78165.747475,7507.735880
93.944807,740.205942,-75501.006084,3064.381992
93.947344,6217.729913,-76241.212026,3524.039291
93.949889,1628.453072,-77425.541533,2757.943793
93.952434,592.164754,-75945.129649,4749.792088
93.954978,8142.265362,-75945.129649,2911.162892
93.957523,2220.617826,-78313.788664,3217.601092
93.960068,1184.329507,-76981.417968,9959.241474
93.962613,-3701.029710,-73724.511823,-2911.162892
93.965158,-14211.954086,-78017.706287,-8733.488677
93.967703,-3108.864956,-77425.541533,-13483.280765
93.970248,5181.441594,-74760.800142,-14402.595362
93.972792,-5625.565159,-77721.623910,-3217.601092
93.975337,-13175.665768,-78165.747475,3217.601092
93.977882,-1924.535449,-75649.047272,2298.286494
93.980427,1924.535449,-78313.788664,2911.162892
93.982972,3404.947333,-74020.594200,-4290.134789
93.985517,-2368.659014,-74020.594200,-15168.690860
93.988061,-4145.153275,-79053.994606,-8580.269578
93.990606,3256.906145,-75501.006084,-2604.724693
93.993151,-4885.359217,-72984.305881,-2911.162892
93.995696,-7846.182985,-79498.118171,766.095498
93.998241,-3701.029710,-72984.305881,-7507.735880
94.000786,-888.247130,-74908.841330,-4596.572988
94.003331,-4885.359217,-80386.365301,-7354.516781
94.005875,-4885.359217,-77129.459156,-4596.572988
94.008420,-1332.370696,-74908.841330,-5515.887586
94.010965,-9918.759623,-80534.406490,1991.848295
94.013510,296.082377,-74908.841330,-7354.516781
94.016055,7105.977043,-77573.582722,4443.353888
94.018600,7105.977043,-77573.582722,6281.983084
94.021144,3552.988522,-74760.800142,9652.803275
94.023689,592.164754,-76537.294403,9959.241474
94.026234,3552.988522,-77129.459156,7814.174080
94.028779,5773.606348,-76685.335591,-2298.286494
94.031324,5329.482782,-75945.129649,-1991.848295
94.033869,-6069.688724,-78017.706287,306.438199
94.036414,9770.718434,-74908.841330,2298.286494
94.038958,7105.977043,-77129.459156,8886.707777
94.041503,5921.647536,-77721.623910,6128.763984
94.044048,2960.823768,-77277.500345,306.438199
94.046593,6513.812290,-78905.953417,6741.640382
94.049138,296.082377,-76093.170838,4136.915689
94.051654,5329.482782,-78017.706287,6588.421283
94.054171,2960.823768,-77721.623910,4136.915689
94.056688,3404.947333,-77721.623910,6741.640382
94.059204,3701.029710,-77869.665098,2911.162892
94.061721,6661.853478,-76389.253214,3217.601092
94.064238,-2960.823768,-78461.829852,7814.174080
94.066754,-7402.059420,-74760.800142,-1838.629195
94.069271,-5329.482782,-76833.376780,-11184.994271
94.071788,-5625.565159,-79202.035794,-9346.365076
94.074304,3404.947333,-73132.347070,-15475.129060
94.076821,-5181.441594,-78905.953417,-2145.067394
94.079337,-13175.665768,-77721.623910,153.219100
94.081854,-3552.988522,-75649.047272,3830.477490
94.084371,2812.782580,-77277.500345,459.657299
94.086887,-5477.523971,-76685.335591,-4136.915689
94.089404,-9622.677246,-77425.541533,-8427.050478
94.091921,-5477.523971,-77129.459156,-7814.174080
94.094437,-2368.659014,-79053.994606,-306.438199
94.096954,-1332.370696,-73872.553012,-5209.449386
94.099471,-5773.606348,-79498.118171,153.219100
94.101987,-8290.306550,-78165.747475,-3677.258390
94.104504,-3256.906145,-74760.800142,-4596.572988
94.107020,-3552.988522,-78757.912229,-5822.325785
94.109537,-2960.823768,-75649.047272,-4596.572988
94.112054,296.082377,-74168.635388,-6128.763984
94.114570,-9474.636058,-78313.788664,-1838.629195
94.117087,592.164754,-78905.953417,-1991.848295
94.119604,11251.130318,-76537.294403,4136.915689
94.122120,7846.182985,-75501.006084,7660.954980
94.124637,-2368.659014,-78757.912229,16854.100956
94.127154,6069.688724,-75204.923707,6281.983084
94.129670,444.123565,-76685.335591,6588.421283
94.132187,6069.688724,-76685.335591,-3830.477490
94.134703,7994.224174,-75204.923707,-3830.477490
94.137220,-8290.306550,-78757.912229,1838.629195
94.139737,-9622.677246,-77869.665098,8580.269578
94.142253,13471.748144,-76389.253214,2757.943793
94.144770,3701.029710,-76833.376780,4443.353888
94.147287,-2812.782580,-81126.571243,12410.747068
94.149803,3552.988522,-74612.758954,2145.067394
94.152332,2516.700203,-77277.500345,2757.943793
94.154861,296.082377,-76685.335591,5056.230287
94.157390,7550.100608,-72244.099939,-2911.162892
94.159919,2072.576638,-78461.829852,6435.202183
94.162448,-1628.453072,-73724.511823,1991.848295
94.164977,6217.729913,-77277.500345,7201.297681
94.167506,-2220.617826,-76833.376780,5056.230287
94.170035,-13915.871710,-73724.511823,-5515.887586
94.172564,-2960.823768,-78757.912229,-13636.499864
94.175093,-1184.329507,-78313.788664,-766.095498
94.177622,-4441.235652,-77573.582722,-5362.668486
94.180151,-4737.318029,-74612.758954,-2604.724693
94.182680,-7550.100608,-79794.200548,5669.106685
94.185209,-6513.812290,-75501.006084,2911.162892
94.187738,1184.329507,-76833.376780,-612.876398
94.190267,-8290.306550,-77869.665098,-7660.954980
94.192796,-740.205942,-77573.582722,-11951.089769
94.195325,6513.812290,-76685.335591,-4136.915689
94.197854,-5181.441594,-75797.088461,-1838.629195
94.200383,-5329.482782,-78165.747475,0.000000
94.202911,-4441.235652,-78313.788664,-3524.039291
94.205440,-7846.182985,-76685.335591,-612.876398
94.207969,-3108.864956,-77573.582722,-7201.297681
94.210498,740.205942,-76833.376780,-4596.572988
94.213027,-6513.812290,-76241.212026,-7967.393179
94.215556,-5329.482782,-77129.459156,-459.657299
94.218085,7550.100608,-74020.594200,-7814.174080
94.220614,7846.182985,-78905.953417,9652.803275
94.223143,1776.494261,-75352.964896,7048.078582
94.225672,4589.276840,-76241.212026,14249.376263
94.228201,-3701.029710,-79202.035794,10418.898773
94.230730,2664.741391,-75352.964896,2451.505594
94.233259,6365.771101,-76389.253214,-2145.067394
94.235788,2220.617826,-77425.541533,-4290.134789
94.238317,7550.100608,-75501.006084,-766.095498
94.240846,4441.235652,-74316.676577,1532.190996
94.243375,5921.647536,-76093.170838,8886.707777
94.245904,2368.659014,-74168.635388,3064.381992
94.248433,7994.224174,-76093.170838,0.000000
94.250962,2072.576638,-75501.006084,4903.011187
94.253501,3108.864956,-75204.923707,3983.696590
94.256041,6809.894666,-78757.912229,3064.381992
94.258581,444.123565,-78757.912229,5056.230287
94.261121,4145.153275,-77277.500345,7354.516781
94.263660,4589.276840,-77573.582722,3217.601092
94.266200,-148.041188,-80978.530055,10878.556072
94.268740,-5477.523971,-74612.758954,2145.067394
94.271279,-5477.523971,-76833.376780,-9652.803275
94.273819,-5477.523971,-80830.488866,-9499.584175
94.276359,444.123565,-74760.800142,-15628.348159
94.278898,-3552.988522,-77573.582722,-2145.067394
94.281438,-11251.130318,-77869.665098,-2298.286494
94.283978,-7550.100608,-76981.417968,7814.174080
94.286517,3404.947333,-73576.470635,-4596.572988
94.289057,-13175.665768,-80386.365301,4290.134789
94.291597,-6069.688724,-72836.264693,-14249.376263
94.294137,-13915.871710,-78017.706287,-8427.050478
94.296676,-4293.194464,-78461.829852,-1991.848295
94.299216,2220.617826,-74020.594200,-6588.421283
94.301756,-2516.700203,-78461.829852,-1225.752797
94.304295,-9622.677246,-78165.747475,-153.219100
94.306835,-3256.906145,-74760.800142,-5209.449386
94.309375,-1036.288319,-77721.623910,-4290.134789
94.311914,-3849.070898,-77425.541533,-4749.792088
94.314454,-3997.112087,-75501.006084,-5362.668486
94.316994,-2368.659014,-75945.129649,-6894.859482
94.319534,1184.329507,-79202.035794,-459.657299
94.322073,13619.789333,-74760.800142,2451.505594
94.324613,3108.864956,-76981.417968,12870.404366
94.327153,-2220.617826,-78609.871040,13942.938064
94.329692,10955.047942,-75204.923707,9193.145976
94.332232,5773.606348,-74168.635388,-306.438199
94.334772,-296.082377,-80534.406490,153.219100
94.337311,740.205942,-74760.800142,-7048.078582
94.339851,10214.842000,-76093.170838,153.219100
94.342391,-1776.494261,-78165.747475,10878.556072
94.344930,4145.153275,-72688.223504,3677.258390
94.347470,7402.059420,-79053.994606,4903.011187
94.350010,4737.318029,-80386.365301,7048.078582
94.352550,8438.347739,-73576.470635,4596.572988
94.355097,4145.153275,-79053.994606,5209.449386
94.357645,2516.700203,-79942.241736,7354.516781
94.360193,13471.748144,-73428.429446,-1378.971896
94.362741,3404.947333,-77277.500345,4903.011187
94.365288,296.082377,-78165.747475,2757.943793
94.367836,-1184.329507,-74316.676577,7660.954980
94.370384,-7994.224174,-73576.470635,-6741.640382
94.372932,-10955.047942,-79942.241736,-6435.202183
94.375480,5773.606348,-74168.635388,-18692.730151
94.378027,1332.370696,-77869.665098,-8733.488677
94.380575,-7254.018232,-77573.582722,-4290.134789
94.383123,-4589.276840,-75204.923707,1072.533697
94.385671,-5477.523971,-79202.035794,6281.983084
94.388218,3108.864956,-77277.500345,0.000000
94.390766,-4293.194464,-76241.212026,-3370.820191
94.393314,-2960.823768,-77277.500345,-12104.308868
94.395862,-1924.535449,-78609.871040,-6894.859482
94.398409,-1776.494261,-74020.594200,-4596.572988
94.400957,-4441.235652,-76389.253214,-2911.162892
94.403505,-10214.842000,-80534.406490,0.000000
94.406053,0.000000,-73428.429446,-6281.983084
94.408601,-6809.894666,-78017.706287,-3064.381992
94.411148,-1628.453072,-78165.747475,-3217.601092
94.413696,-1332.370696,-75056.882519,-7814.174080
94.416244,-8734.430116,-79053.994606,-919.314598
94.418792,2072.576638,-75797.088461,-7660.954980
94.421339,11695.253884,-78165.747475,3064.381992
94.423887,6069.688724,-76537.294403,9346.365076
94.426435,-148.041188,-79498.118171,16547.662757
94.428983,5773.606348,-74316.676577,7048.078582
94.431531,-592.164754,-76981.417968,7354.516781
94.434078,5181.441594,-77129.459156,-3370.820191
94.436626,5773.606348,-75204.923707,-4903.011187
94.439174,7105.977043,-77277.500345,-2451.505594
94.441722,3256.906145,-75945.129649,1991.848295
94.444269,8586.388927,-74168.635388,8427.050478
94.446817,4885.359217,-77869.665098,7354.516781
94.449365,9326.594869,-76981.417968,2604.724693
94.451913,6365.771101,-78313.788664,7507.735880
94.454461,2220.617826,-76241.212026,6741.640382
94.457015,5921.647536,-79350.076982,1685.410096
94.459570,9770.718434,-75352.964896,919.314598
94.462124,-444.123565,-79350.076982,10112.460574
94.464679,6957.935855,-78017.706287,153.219100
94.467233,3997.112087,-78313.788664,13023.623466
94.469788,-11843.295072,-75204.923707,-1991.848295
94.472342,-7105.977043,-76685.335591,-9346.365076
94.474897,-2072.576638,-78165.747475,-12717.185267
94.477452,-296.082377,-75945.129649,-16394.443657
94.480006,-4589.276840,-76685.335591,-3983.696590
94.482561,-9178.553681,-74464.717765,-1072.533697
94.485115,-9474.636058,-79794.200548,8427.050478
94.487670,-1924.535449,-74612.758954,-2757.943793
94.490224,7846.182985,-74760.800142,-3217.601092
94.492779,-7105.977043,-78757.912229,-5975.544884
94.495334,-3701.029710,-77129.459156,-13330.061665
94.497888,-2368.659014,-75649.047272,-3524.039291
94.500443,-6957.935855,-76537.294403,-5056.230287
94.502997,-4589.276840,-77129.459156,-2145.067394
94.505552,-7550.100608,-75649.047272,-3983.696590
94.508106,-6069.688724,-77573.582722,0.000000
94.510661,4293.194464,-73724.511823,-8427.050478
94.513215,-5033.400406,-77721.623910,-1378.971896
94.515770,-10658.965565,-76833.376780,-5515.887586
94.518325,3849.070898,-77869.665098,-6741.640382
94.520879,10658.965565,-76537.294403,2298.286494
94.523434,4885.359217,-78461.829852,11491.432470
94.525988,5329.482782,-76389.253214,12104.308868
94.528543,1184.329507,-77129.459156,12870.404366
94.531097,4589.276840,-78461.829852,10112.460574
94.533652,12731.542202,-74908.841330,-5975.544884
94.536207,2960.823768,-78905.953417,1072.533697
94.538733,-5625.565159,-77721.623910,-2604.724693
94.541260,6069.688724,-76685.335591,4443.353888
94.543787,-4145.153275,-75649.047272,4903.011187
94.546314,3404.947333,-80682.447678,10572.117872
94.548841,9474.636058,-77573.582722,2145.067394
94.551368,6809.894666,-75352.964896,7354.516781
94.553894,1036.288319,-77129.459156,4903.011187
94.556421,6809.894666,-77425.541533,2911.162892
94.558948,6809.894666,-76389.253214,612.876398
94.561475,296.082377,-77129.459156,7048.078582
94.564002,7846.182985,-75501.006084,-2145.067394
94.566529,-4885.359217,-80238.324113,12257.527968
94.569056,-10658.965565,-72096.058751,-3830.477490
94.571582,-3701.029710,-77425.541533,-9499.584175
94.574109,-5921.647536,-79202.035794,-12563.966167
94.576636,-592.164754,-77721.623910,-8580.269578
94.579163,-3256.906145,-76093.170838,-5669.106685
94.581690,-8438.347739,-77277.500345,2298.286494
94.584217,-7105.977043,-78165.747475,6588.421283
94.586744,-1332.370696,-76389.253214,-1378.971896
94.589270,-5625.565159,-78461.829852,-153.219100
94.591797,-4145.153275,-77277.500345,-11951.089769
94.594324,3404.947333,-76093.170838,-8427.050478
94.596851,-6957.935855,-76093.170838,-3524.039291
94.599378,-4885.359217,-74464.717765,-6588.421283
94.601905,-3849.070898,-77129.459156,-2604.724693
94.604432,-2516.700203,-73576.470635,-5515.887586
94.606958,3108.864956,-76241.212026,-5209.449386
94.609485,-444.123565,-75204.923707,-4596.572988
94.612012,-4589.276840,-76685.335591,-4903.011187
94.614539,-5329.482782,-77425.541533,-4290.134789
94.617066,9030.512492,-77869.665098,-4136.915689
94.619593,8734.430116,-79498.118171,7354.516781
94.622120,2368.659014,-76389.253214,11951.089769
94.624646,1184.329507,-77129.459156,15475.129060
94.627173,-3256.906145,-78757.912229,11491.432470
94.629700,6365.771101,-74168.635388,1378.971896
94.632227,7254.018232,-76389.253214,-2298.286494
94.634754,-2812.782580,-78017.706287,-2298.286494
94.637281,1924.535449,-81274.612432,3524.039291
94.639819,7698.141797,-75056.882519,7048.078582
94.642357,13175.665768,-77277.500345,9652.803275
94.644895,8142.265362,-78757.912229,4749.792088
94.647433,9030.512492,-77869.665098,8120.612279
94.649971,3108.864956,-75797.088461,4749.792088
94.652509,3701.029710,-80682.447678,7354.516781
94.655047,9030.512492,-76833.376780,919.314598
94.657585,4441.235652,-78609.871040,8886.707777
94.660124,4293.194464,-76685.335591,-612.876398
94.662662,3997.112087,-78313.788664,10878.556072
94.665200,-11991.336260,-74464.717765,-5209.449386
94.667738,-9178.553681,-80830.488866,-5669.106685
94.670276,592.164754,-75352.964896,-17620.196454
94.672814,592.164754,-76981.417968,-11491.432470
94.675352,-8290.306550,-79202.035794,-3830.477490
94.677890,-7994.224174,-75204.923707,-919.314598
94.680428,-8290.306550,-77721.623910,7354.516781
94.682966,-2960.823768,-75501.006084,-919.314598
94.685504,7254.018232,-74612.758954,-2911.162892
94.688042,-10658.965565,-79350.076982,-5362.668486
94.690581,-7105.977043,-78757.912229,-10878.556072
94.693119,-1776.494261,-75204.923707,-5362.668486
94.695657,-7550.100608,-76537.294403,-3983.696590
94.698195,-6365.771101,-78609.871040,-3064.381992
94.700733,-2072.576638,-72984.305881,-5515.887586
94.703271,-3997.112087,-79498.118171,1378.971896
94.705809,-1628.453072,-76389.253214,-5209.449386
94.708347,-1924.535449,-75945.129649,-4290.134789
94.710885,-11399.171507,-76093.170838,-6128.763984
94.713423,5477.523971,-77721.623910,-5669.106685
94.715961,12879.583391,-75501.006084,2757.943793
94.718499,4145.153275,-77277.500345,11797.870669
94.721038,0.000000,-77425.541533,16088.005458
94.723576,7254.018232,-75352.964896,9499.584175
94.726114,-2812.782580,-76685.335591,2757.943793
94.728652,2664.741391,-77573.582722,-3830.477490
94.731190,11103.089130,-74316.676577,-7660.954980
94.733728,-888.247130,-78165.747475,1991.848295
94.736266,-2220.617826,-74908.841330,5515.887586
94.738804,6365.771101,-75501.006084,4749.792088
94.741347,4441.235652,-77721.623910,6128.763984
94.743894,7402.059420,-76389.253214,6741.640382
94.746442,5033.400406,-73576.470635,4290.134789
94.748989,296.082377,-79053.994606,6741.640382
94.751537,7402.059420,-76537.294403,1838.629195
94.754084,6809.894666,-77425.541533,4903.011187
94.756632,1776.494261,-79053.994606,4136.915689
94.759179,148.041188,-77721.623910,10112.460574
94.761727,-7402.059420,-73280.388258,-3524.039291
94.764274,-12731.542202,-80386.365301,-4596.572988
94.766822,-888.247130,-77573.582722,-13636.499864
94.769369,2516.700203,-75797.088461,-13942.938064
94.771917,-9474.636058,-78461.829852,-4290.134789
94.774464,-7402.059420,-74464.717765,-3677.258390
94.777012,-4885.359217,-76981.417968,4290.134789
94.779559,148.041188,-76537.294403,0.000000
94.782107,-4737.318029,-74908.841330,-1225.752797
94.784654,-3849.070898,-76241.212026,-12104.308868
94.787202,-5773.606348,-80238.324113,-6281.983084
94.789749,-4293.194464,-70911.729244,-5975.544884
94.792297,-1332.370696,-74760.800142,-8120.612279
94.794844,-13027.624579,-80238.324113,-459.657299
94.797392,-148.041188,-72984.305881,-8120.612279
94.799939,2664.741391,-76685.335591,-3830.477490
94.802487,-5181.441594,-77721.623910,-153.219100
94.805034,-1776.494261,-74612.758954,-7201.297681
94.807582,-5921.647536,-78017.706287,-4903.011187
94.810129,1924.535449,-78461.829852,-3677.258390
94.812677,15692.365970,-75352.964896,3064.381992
94.815224,2812.782580,-76685.335591,10725.336972
94.817772,-3552.988522,-78757.912229,18999.168350
94.820319,4885.359217,-74760.800142,7201.297681
94.822867,6661.853478,-78609.871040,5669.106685
94.825414,4293.194464,-77721.623910,-2451.505594
94.827962,6513.812290,-74464.717765,-5362.668486
94.830509,2664.741391,-78609.871040,-766.095498
94.833057,888.247130,-76537.294403,8886.707777
94.835604,15248.242405,-74464.717765,7048.078582
94.838152,6513.812290,-79202.035794,6588.421283
94.840699,3701.029710,-80830.488866,9959.241474
94.843254,7698.141797,-75501.006084,5822.325785
94.845808,4145.153275,-80534.406490,5822.325785
94.848362,2072.576638,-78461.829852,3217.601092
94.850917,4441.235652,-74168.635388,2145.067394
94.853471,1184.329507,-78905.953417,2604.724693
94.856026,-3552.988522,-78017.706287,9652.803275
94.858580,-8142.265362,-70763.688055,-6128.763984
94.861134,-8290.306550,-79350.076982,-9346.365076
94.863689,-2516.700203,-77129.459156,-12410.747068
94.866243,6365.771101,-73428.429446,-16241.224558
94.868798,-9918.759623,-80682.447678,153.219100
94.871352,-9178.553681,-75649.047272,-3217.601092
94.873906,-2368.659014,-77129.459156,6435.202183
94.876461,-148.041188,-77869.665098,-919.314598
94.879015,-3108.864956,-78165.747475,-459.657299
94.881570,0.000000,-74464.717765,-15475.129060
94.884124,-8290.306550,-81274.612432,-1378.971896
94.886678,-1332.370696,-73872.553012,-11338.213370
94.889233,-2812.782580,-76093.170838,-3217.601092
94.891787,-6809.894666,-78313.788664,-3064.381992
94.894342,-5033.400406,-75056.882519,-2298.286494
94.896896,-1184.329507,-76685.335591,-2757.943793
94.899450,-5477.523971,-78017.706287,-3217.601092
94.902005,-7994.224174,-75204.923707,-4136.915689
94.904559,-740.205942,-74760.800142,-11951.089769
94.907114,4885.359217,-80682.447678,3677.258390
94.909668,11251.130318,-73576.470635,4596.572988
94.912222,5033.400406,-77129.459156,16547.662757
94.914777,592.164754,-77869.665098,13942.938064
94.917331,4145.153275,-75649.047272,9959.241474
94.919885,8438.347739,-76389.253214,-1991.848295
94.922440,-3552.988522,-79794.200548,-1838.629195
94.924994,9918.759623,-74908.841330,-5822.325785
94.927549,1924.535449,-77721.623910,5056.230287
94.930103,296.082377,-76685.335591,5209.449386
94.932657,8290.306550,-76981.417968,7967.393179
94.935212,9178.553681,-78313.788664,5822.325785
94.937766,3849.070898,-77573.582722,11184.994271
94.940321,3701.029710,-75204.923707,4443.353888
94.942875,6069.688724,-78461.829852,3677.258390
94.945435,3849.070898,-77869.665098,3370.820191
94.947996,7254.018232,-73428.429446,-2145.067394
94.950556,3701.029710,-80386.365301,7814.174080
94.953116,-11547.212695,-75945.129649,2145.067394
94.955676,-8142.265362,-74612.758954,-8733.488677
94.958237,-4589.276840,-82310.900750,-7354.516781
94.960797,3256.906145,-74168.635388,-16241.224558
94.963357,-1480.411884,-76981.417968,-3524.039291
94.965917,-10510.924376,-77129.459156,-5209.449386
94.968478,-8290.306550,-77277.500345,4749.792088
94.971038,-1480.411884,-74316.676577,-1685.410096
94.973598,-1628.453072,-76685.335591,-306.438199
94.976158,-4589.276840,-78461.829852,-8886.707777
94.978719,0.000000,-75797.088461,-9499.584175
94.981279,-5033.400406,-75501.006084,-3983.696590
94.983839,-4885.359217,-75945.129649,-7660.954980
94.986399,-3404.947333,-77869.665098,-3983.696590
94.988960,-5181.441594,-77573.582722,-5209.449386
94.991520,-4885.359217,-76981.417968,459.657299
94.994080,888.247130,-75649.047272,-5822.325785
94.996640,-7846.182985,-79794.200548,1072.533697
94.999201,-5625.565159,-74760.800142,-9039.926876
95.001761,11695.253884,-78609.871040,4443.353888
95.004321,10214.842000,-75945.129649,3370.820191
95.006881,2516.700203,-78461.829852,15781.567259
95.009442,6069.688724,-77129.459156,13176.842566
95.012002,-2220.617826,-78313.788664,11338.213370
95.014562,2960.823768,-76981.417968,1991.848295
95.017122,4737.318029,-75945.129649,-4136.915689
95.019683,-6661.853478,-78905.953417,-1378.971896
95.022243,-1480.411884,-74168.635388,-919.314598
95.024803,8882.471304,-75649.047272,3830.477490
95.027363,-1776.494261,-74760.800142,7354.516781
95.029924,9622.677246,-74612.758954,7507.735880
95.032484,5033.400406,-71799.976374,4136.915689
95.035044,-592.164754,-75945.129649,6894.859482
95.037604,6809.894666,-77425.541533,612.876398
95.040165,9326.594869,-73576.470635,1225.752797
95.042725,-148.041188,-77425.541533,1991.848295
95.045285,3701.029710,-78609.871040,5822.325785
95.047850,-7105.977043,-71651.935186,-2911.162892
95.050416,-11251.130318,-77721.623910,-8427.050478
95.052981,-5921.647536,-79646.159359,-8580.269578
95.055546,4441.235652,-73724.511823,-16241.224558
95.058111,-8438.347739,-80830.488866,-153.219100
95.060676,-10658.965565,-75945.129649,-2911.162892
95.063241,-3997.112087,-75501.006084,3370.820191
95.065806,-5181.441594,-78165.747475,766.095498
95.068372,-3849.070898,-78757.912229,153.219100
95.070937,-6365.771101,-74908.841330,-12870.404366
95.073502,-3997.112087,-80682.447678,-3217.601092
95.076067,-4737.318029,-76093.170838,-9193.145976
95.078632,-740.205942,-73576.470635,-5056.230287
95.081197,-7402.059420,-79942.241736,-3983.696590
95.083763,-5181.441594,-75352.964896,-3677.258390
95.086328,2664.741391,-75797.088461,-2757.943793
95.088893,-3997.112087,-77869.665098,-3370.820191
95.091458,-8142.265362,-76833.376780,-1378.971896
95.094023,2516.700203,-74168.635388,-10878.556072
95.096588,9326.594869,-79794.200548,5975.544884
95.099154,6661.853478,-74760.800142,5515.887586
95.101719,4145.153275,-75945.129649,16394.443657
95.104284,148.041188,-78165.747475,12410.747068
95.106849,2664.741391,-77277.500345,11031.775171
95.109414,10658.965565,-76537.294403,-2604.724693
95.111979,4737.318029,-79498.118171,-1838.629195
95.114544,-2368.659014,-77425.541533,-1838.629195
95.117110,11399.171507,-73132.347070,-5056.230287
95.119675,3552.988522,-78017.706287,7814.174080
95.122240,6069.688724,-71059.770432,3524.039291
95.124805,9178.553681,-77277.500345,1991.848295
95.127370,740.205942,-75797.088461,9193.145976
95.129935,2220.617826,-71651.935186,1378.971896
95.132501,7698.141797,-77573.582722,919.314598
95.135066,148.041188,-76537.294403,1532.190996
95.137631,4589.276840,-76537.294403,3830.477490
95.140196,592.164754,-78609.871040,3677.258390
95.142761,-14952.160028,-77721.623910,612.876398
95.145326,-5181.441594,-76685.335591,-11031.775171
95.147891,1776.494261,-78757.912229,-11338.213370
95.150460,-2368.659014,-76537.294403,-10112.460574
95.153029,-6069.688724,-75945.129649,-4596.572988
95.155597,-8882.471304,-77425.541533,-2145.067394
95.158166,-1036.288319,-78017.706287,5056.230287
95.160734,-5033.400406,-75797.088461,-2604.724693
95.163303,-592.164754,-77277.500345,-7814.174080
95.165871,-14359.995275,-79053.994606,-2604.724693
95.168440,-2960.823768,-75056.882519,-6435.202183
95.171008,-3849.070898,-75056.882519,-5975.544884
95.173577,-10362.883188,-78017.706287,-5362.668486
95.176145,-2072.576638,-74316.676577,-9499.584175
95.178714,5773.606348,-76685.335591,-4290.134789
95.181282,-7698.141797,-78017.706287,2298.286494
95.183851,888.247130,-75056.882519,-5209.449386
95.186419,-4441.235652,-77425.541533,-3677.258390
95.188988,3404.947333,-79202.035794,612.876398
95.191556,9474.636058,-75352.964896,3370.820191
95.194125,6069.688724,-76241.212026,8733.488677
95.196693,-6217.729913,-79794.200548,19458.825649
95.199262,12139.377449,-74612.758954,5975.544884
95.201830,8438.347739,-78017.706287,8580.269578
95.204399,5181.441594,-76093.170838,-2911.162892
95.206967,-1924.535449,-77425.541533,-3370.820191
95.209536,1480.411884,-77277.500345,153.219100
95.212104,3108.864956,-77129.459156,5209.449386
95.214673,6957.935855,-75204.923707,5515.887586
95.217241,5625.565159,-77721.623910,5515.887586
95.219810,1776.494261,-77425.541533,10418.898773
95.222378,5181.441594,-73576.470635,5975.544884
95.224947,7105.977043,-79498.118171,4290.134789
95.227515,2960.823768,-75945.129649,2911.162892
95.230084,6809.894666,-74316.676577,-2145.067394
95.232652,-296.082377,-80238.324113,5515.887586
95.235221,-11251.130318,-76093.170838,0.000000
95.237789,-7846.182985,-75797.088461,-9039.926876
95.240358,-5921.647536,-81274.612432,-8427.050478
95.242927,2812.782580,-74612.758954,-12257.527968
95.245495,-2368.659014,-76537.294403,-5975.544884
95.248064,-12287.418637,-78165.747475,-766.095498
95.250632,-7254.018232,-77129.459156,3217.601092
95.253204,1924.535449,-74908.841330,-1685.410096
95.255775,-2368.659014,-78905.953417,-2757.943793
95.258347,-12139.377449,-78165.747475,-4903.011187
95.260918,2960.823768,-78165.747475,-5975.544884
95.263490,-5033.400406,-77277.500345,-4443.353888
95.266061,-5329.482782,-76685.335591,-5515.887586
95.268633,-4737.318029,-77277.500345,-7814.174080
95.271204,-5625.565159,-76981.417968,-1838.629195
95.273776,-1184.329507,-76241.212026,-1838.629195
95.276347,-1036.288319,-75501.006084,-5209.449386
95.278919,-10807.006753,-78165.747475,-2604.724693
95.281491,3552.988522,-76981.417968,-4749.792088
95.284062,16136.489536,-76241.212026,2145.067394
95.286634,2220.617826,-76685.335591,8427.050478
95.289205,148.041188,-77277.500345,16088.005458
95.291777,3701.029710,-75204.923707,7814.174080
95.294348,5477.523971,-76241.212026,10725.336972
95.296920,9030.512492,-75797.088461,-2757.943793
95.299491,5773.606348,-76537.294403,-3217.601092
95.302063,148.041188,-79350.076982,-766.095498
95.304634,13323.706956,-76833.376780,4443.353888
95.307206,4589.276840,-77573.582722,5975.544884
95.309778,740.205942,-77721.623910,10265.679673
95.312349,3849.070898,-78461.829852,8733.488677
95.314921,9178.553681,-74464.717765,7354.516781
95.317492,3108.864956,-78017.706287,5515.887586
95.320064,5181.441594,-77869.665098,3830.477490
95.322635,6365.771101,-74908.841330,-4596.572988
95.325207,-444.123565,-80534.406490,9806.022374
95.327778,-5773.606348,-74020.594200,-3983.696590
95.330350,-11695.253884,-76685.335591,-6128.763984
95.332921,-9770.718434,-78905.953417,-8120.612279
95.335493,8586.388927,-74168.635388,-16700.881856
95.338064,-3701.029710,-79053.994606,-2911.162892
95.340636,-12731.542202,-78313.788664,0.000000
95.343208,-5329.482782,-75945.129649,612.876398
95.345779,-740.205942,-77573.582722,-1072.533697
95.348351,-296.082377,-76685.335591,-3983.696590
95.350922,-2516.700203,-71503.893997,-13483.280765
95.353494,-12435.459826,-74612.758954,-6894.859482
95.356067,-9030.512492,-73872.553012,-10112.460574
95.358640,-5033.400406,-73724.511823,-8886.707777
95.361214,-6661.853478,-76093.170838,-7354.516781
95.363787,-5329.482782,-75797.088461,-4443.353888
95.366360,-1332.370696,-75501.006084,-306.438199
95.368934,-3849.070898,-80682.447678,-1532.190996
95.371507,-6957.935855,-78017.706287,1532.190996
95.374081,6661.853478,-76389.253214,-4749.792088
95.376654,11399.171507,-80090.282924,5975.544884
95.379227,3404.947333,-77277.500345,7967.393179
95.381801,1480.411884,-77277.500345,17773.415554
95.384374,740.205942,-76981.417968,8120.612279
95.386947,2664.741391,-76685.335591,8273.831378
95.389521,10510.924376,-73132.347070,-5056.230287
95.392094,-4145.153275,-78905.953417,-306.438199
95.394667,0.000000,-76981.417968,0.000000
95.397241,2220.617826,-75204.923707,766.095498
95.399814,5033.400406,-79202.035794,7660.954980
95.402387,4885.359217,-78757.912229,7814.174080
95.404961,7402.059420,-75501.006084,9652.803275
95.407534,3701.029710,-76833.376780,9806.022374
95.410108,4293.194464,-79053.994606,7354.516781
95.412681,10362.883188,-74316.676577,459.657299
95.415254,592.164754,-78017.706287,1225.752797
95.417828,592.164754,-78313.788664,3370.820191
95.420401,-5625.565159,-72688.223504,-5209.449386
95.422974,-12139.377449,-79202.035794,-6741.640382
95.425548,-2072.576638,-78461.829852,-8580.269578
95.428121,5625.565159,-74612.758954,-13023.623466
95.430694,-8586.388927,-80238.324113,1072.533697
95.433268,-8882.471304,-74168.635388,-459.657299
95.435841,-1924.535449,-75797.088461,306.438199
95.438414,-1924.535449,-79053.994606,-2451.505594
95.440988,-4737.318029,-74020.594200,-5362.668486
95.443561,-2960.823768,-73132.347070,-8580.269578
95.446134,-7402.059420,-80830.488866,-2451.505594
95.448708,-3552.988522,-74760.800142,-6894.859482
95.451281,-2812.782580,-77425.541533,-4136.915689
95.453855,-5477.523971,-79942.241736,-4903.011187
95.456428,-2220.617826,-74760.800142,-3677.258390
95.459003,-2220.617826,-77869.665098,-2757.943793
95.461578,-9622.677246,-78905.953417,-766.095498
95.464153,-1480.411884,-76241.212026,-7048.078582
95.466728,14211.954086,-77869.665098,612.876398
95.469304,9030.512492,-76093.170838,7814.174080
95.471879,2812.782580,-79053.994606,14402.595362
95.474454,3997.112087,-75501.006084,11491.432470
95.477029,4737.318029,-76833.376780,10878.556072
95.479604,6365.771101,-78609.871040,459.657299
95.482179,6365.771101,-76833.376780,-3064.381992
95.484754,2368.659014,-77869.665098,-153.219100
95.487330,2220.617826,-75797.088461,1991.848295
95.489905,12583.501014,-76537.294403,4903.011187
95.492480,6069.688724,-77721.623910,7660.954980
95.495055,5033.400406,-78017.706287,9346.365076
95.497630,8438.347739,-73280.388258,7201.297681
95.500205,5921.647536,-78017.706287,6435.202183
95.502780,4293.194464,-79794.200548,6435.202183
95.505356,5625.565159,-74464.717765,-2451.505594
95.507931,-296.082377,-79646.159359,6435.202183
95.510506,-9622.677246,-76685.335591,-2451.505594
95.513081,-9474.636058,-74464.717765,-10112.460574
95.515656,-7846.182985,-80090.282924,-7507.735880
95.518231,3997.112087,-74168.635388,-14555.814462
95.520806,-1184.329507,-75649.047272,-4443.353888
95.523382,-14063.912898,-77721.623910,-1072.533697
95.525957,-5329.482782,-77721.623910,1991.848295
95.528532,-1332.370696,-74316.676577,-3370.820191
95.531107,-1480.411884,-79794.200548,459.657299
95.533682,444.123565,-77129.459156,-11797.870669
95.536257,-6069.688724,-77277.500345,-3524.039291
95.538832,-4737.318029,-76833.376780,-8886.707777
95.541408,-4589.276840,-76537.294403,-5975.544884
95.543983,-3701.029710,-76241.212026,-6588.421283
95.546558,-3849.070898,-77721.623910,-1991.848295
95.549133,-3256.906145,-74760.800142,-1838.629195
95.551708,-2220.617826,-75945.129649,-2911.162892
95.554283,-10955.047942,-78165.747475,-2604.724693
95.556858,8438.347739,-74760.800142,-766.095498
95.559434,12583.501014,-75501.006084,4443.353888
95.562009,1184.329507,-77573.582722,11031.775171
95.564585,-4441.235652,-79350.076982,18233.072852
95.567161,5329.482782,-75352.964896,7967.393179
95.569737,4589.276840,-78905.953417,7354.516781
95.572313,7550.100608,-74316.676577,-3524.039291
95.574889,5329.482782,-77573.582722,-2911.162892
95.577465,5477.523971,-75797.088461,-5209.449386
95.580041,4885.359217,-72540.182316,1532.190996
95.582616,9770.718434,-75056.882519,6435.202183
95.585192,3849.070898,-75649.047272,3524.039291
95.587768,-888.247130,-75204.923707,13483.280765
95.590344,8734.430116,-71355.852809,-919.314598
95.592920,3256.906145,-80830.488866,9039.926876
95.595496,2960.823768,-74760.800142,-1532.190996
95.598072,5033.400406,-79350.076982,4290.134789
95.600648,-7846.182985,-79794.200548,1685.410096
95.603223,-10658.965565,-74908.841330,-7354.516781
95.605799,-4145.153275,-80386.365301,-7048.078582
95.608375,1036.288319,-76241.212026,-13636.499864
95.610951,888.247130,-75352.964896,-2911.162892
95.613527,-7550.100608,-76537.294403,-5209.449386
95.616103,-12139.377449,-77869.665098,2451.505594
95.618679,4293.194464,-74464.717765,-4903.011187
95.621255,1776.494261,-73576.470635,-5975.544884
95.623830,-5921.647536,-77869.665098,-5515.887586
95.626406,-7105.977043,-73724.511823,-9193.145976
95.628982,-8290.306550,-77277.500345,-4136.915689
95.631558,-8142.265362,-77425.541533,-7660.954980
95.634134,-1184.329507,-75352.964896,-8886.707777
95.636710,740.205942,-75945.129649,-6281.983084
95.639286,-7994.224174,-77277.500345,612.876398
95.641862,-1332.370696,-75056.882519,-5209.449386
95.644438,-9326.594869,-78461.829852,-459.657299
95.647013,5477.523971,-76685.335591,-2757.943793
95.649589,12583.501014,-75056.882519,3524.039291
95.652165,4293.194464,-77721.623910,9959.241474
